File: example_data/Example_MEA_01/HighIV_CP/HighCurrCP_C01.txt
<Ewe/V>	I/mA	Ns	time/s
0.450909	507.242	0	08/31/2025 15:58:01.6850
1.46146	516.413	0	08/31/2025 15:58:03.4850
1.46884	513.866	0	08/31/2025 15:58:05.2850
1.47082	512.846	0	08/31/2025 15:58:07.0850
1.47196	524.565	0	08/31/2025 15:58:08.8850
1.47271	519.47	0	08/31/2025 15:58:10.6850
1.47281	519.979	0	08/31/2025 15:58:12.4850
1.47325	518.96	0	08/31/2025 15:58:14.2850
1.47368	510.809	0	08/31/2025 15:58:16.0850
1.47409	519.979	0	08/31/2025 15:58:17.8850
1.47443	521.508	0	08/31/2025 15:58:19.6850
1.47472	519.979	0	08/31/2025 15:58:21.4850
1.47499	509.79	0	08/31/2025 15:58:23.2850
1.47521	516.922	0	08/31/2025 15:58:25.0850
1.47543	504.695	0	08/31/2025 15:58:26.8850
1.47564	511.318	0	08/31/2025 15:58:28.6850
1.47586	520.998	0	08/31/2025 15:58:30.4850
1.47607	517.432	0	08/31/2025 15:58:32.2850
1.47626	503.676	0	08/31/2025 15:58:34.0850
1.47644	518.451	0	08/31/2025 15:58:35.8850
1.47659	508.771	0	08/31/2025 15:58:37.6850
1.47675	523.036	0	08/31/2025 15:58:39.4850
1.4769	514.885	0	08/31/2025 15:58:41.2850
1.47704	520.998	0	08/31/2025 15:58:43.0850
1.47719	519.979	0	08/31/2025 15:58:44.8850
1.4773	509.79	0	08/31/2025 15:58:46.6850
1.47742	515.394	0	08/31/2025 15:58:48.4850
1.47752	514.885	0	08/31/2025 15:58:50.2850
1.47764	512.337	0	08/31/2025 15:58:52.0850
1.47775	522.017	0	08/31/2025 15:58:53.8850
1.47785	518.451	0	08/31/2025 15:58:55.6850
1.47796	515.903	0	08/31/2025 15:58:57.4850
1.47803	508.771	0	08/31/2025 15:58:59.2850
1.47815	521.508	0	08/31/2025 15:59:01.0850
1.47822	519.979	0	08/31/2025 15:59:02.8850
1.47831	508.771	0	08/31/2025 15:59:04.6850
1.4784	516.413	0	08/31/2025 15:59:06.4850
1.47848	518.96	0	08/31/2025 15:59:08.2850
1.47825	513.866	0	08/31/2025 15:59:10.0850
1.47827	514.885	0	08/31/2025 15:59:11.8850
1.47832	514.885	0	08/31/2025 15:59:13.6850
1.47837	516.413	0	08/31/2025 15:59:15.4850
1.47846	524.055	0	08/31/2025 15:59:17.2850
1.47852	518.451	0	08/31/2025 15:59:19.0850
1.47858	515.903	0	08/31/2025 15:59:20.8850
1.47856	518.96	0	08/31/2025 15:59:22.6850
1.47861	511.318	0	08/31/2025 15:59:24.4850
1.47865	511.828	0	08/31/2025 15:59:26.2850
1.47868	514.375	0	08/31/2025 15:59:28.0850
1.47876	510.809	0	08/31/2025 15:59:29.8850
1.47882	513.866	0	08/31/2025 15:59:31.6850
1.47888	514.885	0	08/31/2025 15:59:33.4850
1.47893	522.017	0	08/31/2025 15:59:35.2850
1.47898	518.451	0	08/31/2025 15:59:37.0850
1.47905	518.96	0	08/31/2025 15:59:38.8850
1.47912	519.979	0	08/31/2025 15:59:40.6850
1.47917	528.131	0	08/31/2025 15:59:42.4850
1.47923	514.375	0	08/31/2025 15:59:44.2850
1.47929	517.941	0	08/31/2025 15:59:46.0850
1.47937	510.809	0	08/31/2025 15:59:47.8850
1.47942	517.432	0	08/31/2025 15:59:49.6850
1.47949	517.432	0	08/31/2025 15:59:51.4850
1.47955	522.527	0	08/31/2025 15:59:53.2850
1.4796	510.299	0	08/31/2025 15:59:55.0850
1.47965	513.356	0	08/31/2025 15:59:56.8850
1.47969	517.941	0	08/31/2025 15:59:58.6850
1.47975	517.432	0	08/31/2025 16:00:00.4850
1.52429	1516.54	1	08/31/2025 16:00:02.2352
1.52493	1517.56	1	08/31/2025 16:00:04.0352
1.52529	1523.16	1	08/31/2025 16:00:05.8352
1.52557	1515.01	1	08/31/2025 16:00:07.6352
1.52584	1523.67	1	08/31/2025 16:00:09.4352
1.52608	1510.43	1	08/31/2025 16:00:11.2352
1.52594	1522.66	1	08/31/2025 16:00:13.0352
1.52613	1517.05	1	08/31/2025 16:00:14.8352
1.5263	1519.09	1	08/31/2025 16:00:16.6352
1.52644	1518.58	1	08/31/2025 16:00:18.4352
1.52658	1522.66	1	08/31/2025 16:00:20.2352
1.5267	1520.11	1	08/31/2025 16:00:22.0352
1.52681	1526.22	1	08/31/2025 16:00:23.8352
1.52693	1517.56	1	08/31/2025 16:00:25.6352
1.52705	1519.09	1	08/31/2025 16:00:27.4352
1.52716	1517.05	1	08/31/2025 16:00:29.2352
1.52729	1512.47	1	08/31/2025 16:00:31.0352
1.5274	1517.05	1	08/31/2025 16:00:32.8352
1.52754	1511.45	1	08/31/2025 16:00:34.6352
1.52766	1523.16	1	08/31/2025 16:00:36.4352
1.52772	1515.52	1	08/31/2025 16:00:38.2352
1.52781	1515.52	1	08/31/2025 16:00:40.0352
1.52788	1518.07	1	08/31/2025 16:00:41.8352
1.52796	1516.54	1	08/31/2025 16:00:43.6352
1.52805	1516.03	1	08/31/2025 16:00:45.4352
1.52813	1514.5	1	08/31/2025 16:00:47.2352
1.52821	1513.99	1	08/31/2025 16:00:49.0352
1.52827	1527.24	1	08/31/2025 16:00:50.8352
1.52835	1517.56	1	08/31/2025 16:00:52.6352
1.52847	1519.6	1	08/31/2025 16:00:54.4352
1.52855	1515.01	1	08/31/2025 16:00:56.2352
1.52864	1522.66	1	08/31/2025 16:00:58.0352
1.52869	1520.11	1	08/31/2025 16:00:59.8352
1.52878	1521.64	1	08/31/2025 16:01:01.6352
1.52884	1519.09	1	08/31/2025 16:01:03.4352
1.52891	1522.15	1	08/31/2025 16:01:05.2352
1.52898	1519.09	1	08/31/2025 16:01:07.0352
1.52904	1528.77	1	08/31/2025 16:01:08.8352
1.52911	1517.56	1	08/31/2025 16:01:10.6352
1.52919	1518.58	1	08/31/2025 16:01:12.4352
1.52923	1528.26	1	08/31/2025 16:01:14.2352
1.5293	1520.62	1	08/31/2025 16:01:16.0352
1.52936	1516.54	1	08/31/2025 16:01:17.8352
1.52943	1516.54	1	08/31/2025 16:01:19.6352
1.52946	1518.58	1	08/31/2025 16:01:21.4352
1.52953	1518.07	1	08/31/2025 16:01:23.2352
1.5296	1516.54	1	08/31/2025 16:01:25.0352
1.52965	1518.07	1	08/31/2025 16:01:26.8352
1.52968	1521.13	1	08/31/2025 16:01:28.6352
1.52976	1511.96	1	08/31/2025 16:01:30.4352
1.52982	1517.56	1	08/31/2025 16:01:32.2352
1.52989	1526.22	1	08/31/2025 16:01:34.0352
1.52993	1515.52	1	08/31/2025 16:01:35.8352
1.52998	1511.96	1	08/31/2025 16:01:37.6352
1.53003	1520.62	1	08/31/2025 16:01:39.4352
1.53008	1515.52	1	08/31/2025 16:01:41.2352
1.53013	1522.66	1	08/31/2025 16:01:43.0352
1.53019	1523.67	1	08/31/2025 16:01:44.8352
1.53022	1525.2	1	08/31/2025 16:01:46.6352
1.53027	1522.66	1	08/31/2025 16:01:48.4352
1.5303	1523.16	1	08/31/2025 16:01:50.2352
1.53034	1520.62	1	08/31/2025 16:01:52.0352
1.53039	1522.66	1	08/31/2025 16:01:53.8352
1.53045	1516.54	1	08/31/2025 16:01:55.6352
1.53048	1513.99	1	08/31/2025 16:01:57.4352
1.53052	1519.6	1	08/31/2025 16:01:59.2352
1.53057	1518.07	1	08/31/2025 16:02:01.0352
1.56585	2518.71	2	08/31/2025 16:02:02.7354
1.56608	2515.65	2	08/31/2025 16:02:04.5354
1.56623	2518.2	2	08/31/2025 16:02:06.3354
1.56635	2518.2	2	08/31/2025 16:02:08.1354
1.56647	2522.78	2	08/31/2025 16:02:09.9354
1.56656	2525.84	2	08/31/2025 16:02:11.7354
1.56666	2517.18	2	08/31/2025 16:02:13.5354
1.56677	2526.35	2	08/31/2025 16:02:15.3354
1.56684	2522.78	2	08/31/2025 16:02:17.1354
1.56693	2522.27	2	08/31/2025 16:02:18.9354
1.567	2520.75	2	08/31/2025 16:02:20.7354
1.56709	2522.78	2	08/31/2025 16:02:22.5354
1.56716	2519.73	2	08/31/2025 16:02:24.3354
1.56723	2520.75	2	08/31/2025 16:02:26.1354
1.56731	2513.61	2	08/31/2025 16:02:27.9354
1.56735	2527.88	2	08/31/2025 16:02:29.7354
1.56742	2520.24	2	08/31/2025 16:02:31.5354
1.5675	2520.24	2	08/31/2025 16:02:33.3354
1.5676	2513.61	2	08/31/2025 16:02:35.1354
1.56767	2518.71	2	08/31/2025 16:02:36.9354
1.56775	2519.73	2	08/31/2025 16:02:38.7354
1.56781	2520.75	2	08/31/2025 16:02:40.5354
1.5679	2525.33	2	08/31/2025 16:02:42.3354
1.56796	2512.59	2	08/31/2025 16:02:44.1354
1.56802	2512.08	2	08/31/2025 16:02:45.9354
1.56808	2515.65	2	08/31/2025 16:02:47.7354
1.56813	2516.67	2	08/31/2025 16:02:49.5354
1.56817	2518.71	2	08/31/2025 16:02:51.3354
1.5682	2521.76	2	08/31/2025 16:02:53.1354
1.56826	2520.24	2	08/31/2025 16:02:54.9354
1.5683	2516.67	2	08/31/2025 16:02:56.7354
1.56835	2521.76	2	08/31/2025 16:02:58.5354
1.56839	2518.2	2	08/31/2025 16:03:00.3354
1.56842	2518.2	2	08/31/2025 16:03:02.1354
1.56845	2526.35	2	08/31/2025 16:03:03.9354
1.56848	2516.67	2	08/31/2025 16:03:05.7354
1.56851	2513.1	2	08/31/2025 16:03:07.5354
1.56852	2521.26	2	08/31/2025 16:03:09.3354
1.56855	2518.2	2	08/31/2025 16:03:11.1354
1.56856	2519.73	2	08/31/2025 16:03:12.9354
1.56858	2525.84	2	08/31/2025 16:03:14.7354
1.56859	2523.29	2	08/31/2025 16:03:16.5354
1.5686	2523.8	2	08/31/2025 16:03:18.3354
1.56861	2520.24	2	08/31/2025 16:03:20.1354
1.56864	2523.29	2	08/31/2025 16:03:21.9354
1.56865	2517.18	2	08/31/2025 16:03:23.7354
1.56867	2522.27	2	08/31/2025 16:03:25.5354
1.56868	2517.69	2	08/31/2025 16:03:27.3354
1.56869	2523.8	2	08/31/2025 16:03:29.1354
1.56871	2516.16	2	08/31/2025 16:03:30.9354
1.56873	2520.75	2	08/31/2025 16:03:32.7354
1.56875	2522.27	2	08/31/2025 16:03:34.5354
1.56876	2528.39	2	08/31/2025 16:03:36.3354
1.56876	2530.43	2	08/31/2025 16:03:38.1354
1.56876	2521.76	2	08/31/2025 16:03:39.9354
1.56875	2518.71	2	08/31/2025 16:03:41.7354
1.56875	2519.73	2	08/31/2025 16:03:43.5354
1.56875	2525.33	2	08/31/2025 16:03:45.3354
1.56873	2527.88	2	08/31/2025 16:03:47.1354
1.56874	2518.2	2	08/31/2025 16:03:48.9354
1.56876	2518.2	2	08/31/2025 16:03:50.7354
1.56876	2520.24	2	08/31/2025 16:03:52.5354
1.56879	2520.24	2	08/31/2025 16:03:54.3354
1.56881	2522.27	2	08/31/2025 16:03:56.1354
1.56884	2523.8	2	08/31/2025 16:03:57.9354
1.56886	2522.78	2	08/31/2025 16:03:59.7354
1.56887	2521.26	2	08/31/2025 16:04:01.5354
1.60102	3513.74	3	08/31/2025 16:04:03.2356
1.60114	3515.78	3	08/31/2025 16:04:05.0356
1.60125	3521.38	3	08/31/2025 16:04:06.8356
1.60134	3520.87	3	08/31/2025 16:04:08.6356
1.60142	3519.35	3	08/31/2025 16:04:10.4356
1.60149	3516.29	3	08/31/2025 16:04:12.2356
1.60157	3517.82	3	08/31/2025 16:04:14.0356
1.60162	3509.67	3	08/31/2025 16:04:15.8356
1.60167	3510.17	3	08/31/2025 16:04:17.6356
1.60173	3511.7	3	08/31/2025 16:04:19.4356
1.60179	3512.72	3	08/31/2025 16:04:21.2356
1.60183	3521.38	3	08/31/2025 16:04:23.0356
1.60186	3517.31	3	08/31/2025 16:04:24.8356
1.60191	3513.74	3	08/31/2025 16:04:26.6356
1.60195	3513.74	3	08/31/2025 16:04:28.4356
1.60199	3512.21	3	08/31/2025 16:04:30.2356
1.60201	3519.35	3	08/31/2025 16:04:32.0356
1.60205	3517.82	3	08/31/2025 16:04:33.8356
1.60208	3515.27	3	08/31/2025 16:04:35.6356
1.60212	3519.86	3	08/31/2025 16:04:37.4356
1.60214	3516.8	3	08/31/2025 16:04:39.2356
1.60218	3512.21	3	08/31/2025 16:04:41.0356
1.6022	3516.8	3	08/31/2025 16:04:42.8356
1.60224	3508.65	3	08/31/2025 16:04:44.6356
1.60228	3511.7	3	08/31/2025 16:04:46.4356
1.60231	3520.36	3	08/31/2025 16:04:48.2356
1.60234	3516.8	3	08/31/2025 16:04:50.0356
1.60237	3519.35	3	08/31/2025 16:04:51.8356
1.6024	3510.68	3	08/31/2025 16:04:53.6356
1.60243	3519.35	3	08/31/2025 16:04:55.4356
1.60244	3518.33	3	08/31/2025 16:04:57.2356
1.60248	3521.38	3	08/31/2025 16:04:59.0356
1.60249	3517.82	3	08/31/2025 16:05:00.8356
1.60252	3515.27	3	08/31/2025 16:05:02.6356
1.60254	3517.31	3	08/31/2025 16:05:04.4356
1.60256	3522.4	3	08/31/2025 16:05:06.2356
1.60258	3517.82	3	08/31/2025 16:05:08.0356
1.60261	3515.27	3	08/31/2025 16:05:09.8356
1.60262	3521.38	3	08/31/2025 16:05:11.6356
1.60264	3515.27	3	08/31/2025 16:05:13.4356
1.6026	3510.17	3	08/31/2025 16:05:15.2356
1.60263	3515.78	3	08/31/2025 16:05:17.0356
1.60268	3509.16	3	08/31/2025 16:05:18.8356
1.60269	3519.86	3	08/31/2025 16:05:20.6356
1.60273	3515.78	3	08/31/2025 16:05:22.4356
1.60275	3520.36	3	08/31/2025 16:05:24.2356
1.60276	3517.82	3	08/31/2025 16:05:26.0356
1.60279	3517.31	3	08/31/2025 16:05:27.8356
1.60281	3513.74	3	08/31/2025 16:05:29.6356
1.60284	3519.86	3	08/31/2025 16:05:31.4356
1.60287	3512.21	3	08/31/2025 16:05:33.2356
1.60289	3513.23	3	08/31/2025 16:05:35.0356
1.60291	3516.29	3	08/31/2025 16:05:36.8356
1.60292	3516.29	3	08/31/2025 16:05:38.6356
1.60294	3518.84	3	08/31/2025 16:05:40.4356
1.60297	3516.8	3	08/31/2025 16:05:42.2356
1.60299	3518.33	3	08/31/2025 16:05:44.0356
1.60301	3514.25	3	08/31/2025 16:05:45.8356
1.60303	3513.23	3	08/31/2025 16:05:47.6356
1.60305	3521.38	3	08/31/2025 16:05:49.4356
1.60306	3521.38	3	08/31/2025 16:05:51.2356
1.60308	3513.74	3	08/31/2025 16:05:53.0356
1.6031	3514.25	3	08/31/2025 16:05:54.8356
1.60312	3518.33	3	08/31/2025 16:05:56.6356
1.60315	3517.31	3	08/31/2025 16:05:58.4356
1.60317	3521.89	3	08/31/2025 16:06:00.2356
1.63387	4517.95	4	08/31/2025 16:06:01.9358
1.63407	4514.89	4	08/31/2025 16:06:03.7358
1.63416	4525.59	4	08/31/2025 16:06:05.5358
1.63424	4521	4	08/31/2025 16:06:07.3358
1.63432	4519.98	4	08/31/2025 16:06:09.1358
1.63436	4528.14	4	08/31/2025 16:06:10.9358
1.63443	4516.42	4	08/31/2025 16:06:12.7358
1.63449	4521.51	4	08/31/2025 16:06:14.5358
1.63454	4523.55	4	08/31/2025 16:06:16.3358
1.63459	4525.59	4	08/31/2025 16:06:18.1358
1.63464	4520.49	4	08/31/2025 16:06:19.9358
1.63469	4521	4	08/31/2025 16:06:21.7358
1.63473	4523.55	4	08/31/2025 16:06:23.5358
1.63478	4519.98	4	08/31/2025 16:06:25.3358
1.63484	4523.04	4	08/31/2025 16:06:27.1358
1.63486	4526.61	4	08/31/2025 16:06:28.9358
1.6349	4526.1	4	08/31/2025 16:06:30.7358
1.63493	4517.44	4	08/31/2025 16:06:32.5358
1.63497	4516.42	4	08/31/2025 16:06:34.3358
1.635	4519.47	4	08/31/2025 16:06:36.1358
1.63504	4514.38	4	08/31/2025 16:06:37.9358
1.63511	4523.55	4	08/31/2025 16:06:39.7358
1.63513	4516.93	4	08/31/2025 16:06:41.5358
1.63516	4523.04	4	08/31/2025 16:06:43.3358
1.63521	4521.51	4	08/31/2025 16:06:45.1358
1.63523	4520.49	4	08/31/2025 16:06:46.9358
1.63526	4522.53	4	08/31/2025 16:06:48.7358
1.6353	4512.34	4	08/31/2025 16:06:50.5358
1.63532	4522.02	4	08/31/2025 16:06:52.3358
1.63535	4513.87	4	08/31/2025 16:06:54.1358
1.63538	4523.04	4	08/31/2025 16:06:55.9358
1.6354	4522.53	4	08/31/2025 16:06:57.7358
1.63543	4521	4	08/31/2025 16:06:59.5358
1.63545	4518.97	4	08/31/2025 16:07:01.3358
1.63552	4517.44	4	08/31/2025 16:07:03.1358
1.63555	4521	4	08/31/2025 16:07:04.9358
1.6356	4525.59	4	08/31/2025 16:07:06.7358
1.63573	4520.49	4	08/31/2025 16:07:08.5358
1.63573	4522.02	4	08/31/2025 16:07:10.3358
1.63574	4521	4	08/31/2025 16:07:12.1358
1.63577	4524.06	4	08/31/2025 16:07:13.9358
1.63583	4518.97	4	08/31/2025 16:07:15.7358
1.63587	4524.57	4	08/31/2025 16:07:17.5358
1.63588	4517.95	4	08/31/2025 16:07:19.3358
1.63589	4516.93	4	08/31/2025 16:07:21.1358
1.63589	4522.02	4	08/31/2025 16:07:22.9358
1.63582	4524.57	4	08/31/2025 16:07:24.7358
1.63583	4521.51	4	08/31/2025 16:07:26.5358
1.63587	4518.97	4	08/31/2025 16:07:28.3358
1.63588	4512.85	4	08/31/2025 16:07:30.1358
1.63595	4517.44	4	08/31/2025 16:07:31.9358
1.63601	4519.98	4	08/31/2025 16:07:33.7358
1.63603	4518.97	4	08/31/2025 16:07:35.5358
1.63608	4518.97	4	08/31/2025 16:07:37.3358
1.63607	4525.08	4	08/31/2025 16:07:39.1358
1.63609	4523.55	4	08/31/2025 16:07:40.9358
1.63611	4519.47	4	08/31/2025 16:07:42.7358
1.63608	4521.51	4	08/31/2025 16:07:44.5358
1.63606	4516.42	4	08/31/2025 16:07:46.3358
1.63607	4523.04	4	08/31/2025 16:07:48.1358
1.63606	4510.3	4	08/31/2025 16:07:49.9358
1.63606	4525.59	4	08/31/2025 16:07:51.7358
1.63609	4521	4	08/31/2025 16:07:53.5358
1.63615	4519.47	4	08/31/2025 16:07:55.3358
1.63616	4520.49	4	08/31/2025 16:07:57.1358
1.63623	4525.08	4	08/31/2025 16:07:58.9358
1.63625	4516.93	4	08/31/2025 16:08:00.7358
1.66605	5519.6	5	08/31/2025 16:08:02.4360
1.66616	5527.25	5	08/31/2025 16:08:04.2360
1.66624	5523.68	5	08/31/2025 16:08:06.0360
1.66633	5516.04	5	08/31/2025 16:08:07.8360
1.66631	5524.19	5	08/31/2025 16:08:09.6360
1.66625	5521.64	5	08/31/2025 16:08:11.4360
1.66631	5526.23	5	08/31/2025 16:08:13.2360
1.66636	5528.26	5	08/31/2025 16:08:15.0360
1.66638	5523.68	5	08/31/2025 16:08:16.8360
1.66647	5521.13	5	08/31/2025 16:08:18.6360
1.66652	5523.17	5	08/31/2025 16:08:20.4360
1.66656	5523.68	5	08/31/2025 16:08:22.2360
1.66662	5528.77	5	08/31/2025 16:08:24.0360
1.66667	5524.7	5	08/31/2025 16:08:25.8360
1.66672	5519.6	5	08/31/2025 16:08:27.6360
1.66675	5523.68	5	08/31/2025 16:08:29.4360
1.66674	5514	5	08/31/2025 16:08:31.2360
1.66678	5526.74	5	08/31/2025 16:08:33.0360
1.66679	5512.98	5	08/31/2025 16:08:34.8360
1.66682	5518.58	5	08/31/2025 16:08:36.6360
1.66685	5518.07	5	08/31/2025 16:08:38.4360
1.66687	5525.21	5	08/31/2025 16:08:40.2360
1.66689	5522.15	5	08/31/2025 16:08:42.0360
1.66695	5527.25	5	08/31/2025 16:08:43.8360
1.66699	5515.02	5	08/31/2025 16:08:45.6360
1.66701	5521.13	5	08/31/2025 16:08:47.4360
1.66702	5522.66	5	08/31/2025 16:08:49.2360
1.66706	5520.62	5	08/31/2025 16:08:51.0360
1.66708	5525.72	5	08/31/2025 16:08:52.8360
1.66709	5515.53	5	08/31/2025 16:08:54.6360
1.66713	5522.15	5	08/31/2025 16:08:56.4360
1.66716	5522.15	5	08/31/2025 16:08:58.2360
1.66718	5523.68	5	08/31/2025 16:09:00.0360
1.66722	5519.09	5	08/31/2025 16:09:01.8360
1.66725	5521.64	5	08/31/2025 16:09:03.6360
1.66726	5520.62	5	08/31/2025 16:09:05.4360
1.66728	5519.09	5	08/31/2025 16:09:07.2360
1.6673	5523.17	5	08/31/2025 16:09:09.0360
1.66732	5520.11	5	08/31/2025 16:09:10.8360
1.66733	5524.19	5	08/31/2025 16:09:12.6360
1.66738	5514.51	5	08/31/2025 16:09:14.4360
1.66742	5519.09	5	08/31/2025 16:09:16.2360
1.66744	5518.07	5	08/31/2025 16:09:18.0360
1.66747	5519.6	5	08/31/2025 16:09:19.8360
1.6675	5522.15	5	08/31/2025 16:09:21.6360
1.66749	5520.11	5	08/31/2025 16:09:23.4360
1.66754	5524.19	5	08/31/2025 16:09:25.2360
1.66754	5509.92	5	08/31/2025 16:09:27.0360
1.66759	5517.56	5	08/31/2025 16:09:28.8360
1.66762	5521.64	5	08/31/2025 16:09:30.6360
1.66765	5519.09	5	08/31/2025 16:09:32.4360
1.66766	5524.7	5	08/31/2025 16:09:34.2360
1.6677	5526.74	5	08/31/2025 16:09:36.0360
1.66773	5516.04	5	08/31/2025 16:09:37.8360
1.66775	5519.6	5	08/31/2025 16:09:39.6360
1.66777	5520.62	5	08/31/2025 16:09:41.4360
1.66786	5523.68	5	08/31/2025 16:09:43.2360
1.66785	5519.09	5	08/31/2025 16:09:45.0360
1.6679	5523.17	5	08/31/2025 16:09:46.8360
1.66793	5530.81	5	08/31/2025 16:09:48.6360
1.66796	5516.55	5	08/31/2025 16:09:50.4360
1.66796	5526.74	5	08/31/2025 16:09:52.2360
1.66797	5524.19	5	08/31/2025 16:09:54.0360
1.66799	5524.7	5	08/31/2025 16:09:55.8360
1.66801	5520.11	5	08/31/2025 16:09:57.6360
1.66805	5523.68	5	08/31/2025 16:09:59.4360
1.66807	5523.17	5	08/31/2025 16:10:01.2360
1.69728	6523.3	6	08/31/2025 16:10:02.9362
1.69739	6526.35	6	08/31/2025 16:10:04.7362
1.69741	6535.53	6	08/31/2025 16:10:06.5362
1.69742	6522.79	6	08/31/2025 16:10:08.3362
1.69748	6522.28	6	08/31/2025 16:10:10.1362
1.69753	6521.77	6	08/31/2025 16:10:11.9362
1.69756	6518.2	6	08/31/2025 16:10:13.7362
1.69759	6520.75	6	08/31/2025 16:10:15.5362
1.69758	6519.22	6	08/31/2025 16:10:17.3362
1.69761	6522.28	6	08/31/2025 16:10:19.1362
1.69764	6525.34	6	08/31/2025 16:10:20.9362
1.69766	6520.75	6	08/31/2025 16:10:22.7362
1.6977	6524.32	6	08/31/2025 16:10:24.5362
1.69774	6529.92	6	08/31/2025 16:10:26.3362
1.69776	6532.98	6	08/31/2025 16:10:28.1362
1.69778	6523.3	6	08/31/2025 16:10:29.9362
1.69783	6524.83	6	08/31/2025 16:10:31.7362
1.69786	6526.86	6	08/31/2025 16:10:33.5362
1.69791	6520.24	6	08/31/2025 16:10:35.3362
1.69788	6519.73	6	08/31/2025 16:10:37.1362
1.6979	6518.71	6	08/31/2025 16:10:38.9362
1.69796	6523.81	6	08/31/2025 16:10:40.7362
1.69798	6523.3	6	08/31/2025 16:10:42.5362
1.69798	6518.2	6	08/31/2025 16:10:44.3362
1.69798	6525.85	6	08/31/2025 16:10:46.1362
1.69806	6525.85	6	08/31/2025 16:10:47.9362
1.69803	6514.64	6	08/31/2025 16:10:49.7362
1.69812	6527.88	6	08/31/2025 16:10:51.5362
1.69812	6525.34	6	08/31/2025 16:10:53.3362
1.69818	6525.85	6	08/31/2025 16:10:55.1362
1.69821	6522.79	6	08/31/2025 16:10:56.9362
1.69819	6523.81	6	08/31/2025 16:10:58.7362
1.69822	6520.24	6	08/31/2025 16:11:00.5362
1.69825	6517.18	6	08/31/2025 16:11:02.3362
1.69827	6527.37	6	08/31/2025 16:11:04.1362
1.69827	6522.28	6	08/31/2025 16:11:05.9362
1.69829	6522.28	6	08/31/2025 16:11:07.7362
1.69831	6521.77	6	08/31/2025 16:11:09.5362
1.69834	6528.9	6	08/31/2025 16:11:11.3362
1.69833	6520.75	6	08/31/2025 16:11:13.1362
1.69834	6521.77	6	08/31/2025 16:11:14.9362
1.69835	6520.24	6	08/31/2025 16:11:16.7362
1.69842	6527.88	6	08/31/2025 16:11:18.5362
1.69842	6515.66	6	08/31/2025 16:11:20.3362
1.6984	6529.41	6	08/31/2025 16:11:22.1362
1.69843	6524.32	6	08/31/2025 16:11:23.9362
1.69845	6526.35	6	08/31/2025 16:11:25.7362
1.69843	6522.28	6	08/31/2025 16:11:27.5362
1.69846	6527.88	6	08/31/2025 16:11:29.3362
1.69848	6523.81	6	08/31/2025 16:11:31.1362
1.6985	6524.83	6	08/31/2025 16:11:32.9362
1.69851	6522.79	6	08/31/2025 16:11:34.7362
1.69851	6520.24	6	08/31/2025 16:11:36.5362
1.69853	6529.41	6	08/31/2025 16:11:38.3362
1.69854	6523.81	6	08/31/2025 16:11:40.1362
1.69857	6514.64	6	08/31/2025 16:11:41.9362
1.69855	6528.9	6	08/31/2025 16:11:43.7362
1.69858	6524.32	6	08/31/2025 16:11:45.5362
1.69857	6521.77	6	08/31/2025 16:11:47.3362
1.69859	6522.28	6	08/31/2025 16:11:49.1362
1.69857	6523.81	6	08/31/2025 16:11:50.9362
1.69862	6523.3	6	08/31/2025 16:11:52.7362
1.69862	6523.81	6	08/31/2025 16:11:54.5362
1.69865	6521.26	6	08/31/2025 16:11:56.3362
1.69866	6529.92	6	08/31/2025 16:11:58.1362
1.69864	6523.3	6	08/31/2025 16:11:59.9362
1.69869	6527.88	6	08/31/2025 16:12:01.6364
1.7273	7521.39	7	08/31/2025 16:12:03.4364
1.72734	7512.73	7	08/31/2025 16:12:05.2364
1.72734	7520.88	7	08/31/2025 16:12:07.0364
1.72737	7522.92	7	08/31/2025 16:12:08.8364
1.72742	7519.86	7	08/31/2025 16:12:10.6364
1.72744	7519.86	7	08/31/2025 16:12:12.4364
1.72746	7513.75	7	08/31/2025 16:12:14.2364
1.72747	7518.33	7	08/31/2025 16:12:16.0364
1.72751	7524.45	7	08/31/2025 16:12:17.8364
1.72753	7520.88	7	08/31/2025 16:12:19.6364
1.72755	7519.35	7	08/31/2025 16:12:21.4364
1.72752	7525.97	7	08/31/2025 16:12:23.2364
1.72757	7519.86	7	08/31/2025 16:12:25.0364
1.72761	7525.97	7	08/31/2025 16:12:26.8364
1.72763	7516.29	7	08/31/2025 16:12:28.6364
1.72764	7523.94	7	08/31/2025 16:12:30.4364
1.72768	7529.54	7	08/31/2025 16:12:32.2364
1.72768	7516.8	7	08/31/2025 16:12:34.0364
1.7277	7517.31	7	08/31/2025 16:12:35.8364
1.72768	7514.77	7	08/31/2025 16:12:37.6364
1.72771	7517.31	7	08/31/2025 16:12:39.4364
1.72775	7520.37	7	08/31/2025 16:12:41.2364
1.72778	7519.86	7	08/31/2025 16:12:43.0364
1.72781	7524.95	7	08/31/2025 16:12:44.8364
1.72783	7512.73	7	08/31/2025 16:12:46.6364
1.72788	7517.82	7	08/31/2025 16:12:48.4364
1.72791	7520.37	7	08/31/2025 16:12:50.2364
1.72789	7515.27	7	08/31/2025 16:12:52.0364
1.72793	7522.92	7	08/31/2025 16:12:53.8364
1.72789	7520.37	7	08/31/2025 16:12:55.6364
1.72797	7518.84	7	08/31/2025 16:12:57.4364
1.72799	7518.33	7	08/31/2025 16:12:59.2364
1.72802	7515.78	7	08/31/2025 16:13:01.0364
1.72805	7516.8	7	08/31/2025 16:13:02.8364
1.72801	7521.9	7	08/31/2025 16:13:04.6364
1.72808	7521.9	7	08/31/2025 16:13:06.4364
1.72813	7520.37	7	08/31/2025 16:13:08.2364
1.72814	7526.48	7	08/31/2025 16:13:10.0364
1.72816	7519.35	7	08/31/2025 16:13:11.8364
1.72823	7515.78	7	08/31/2025 16:13:13.6364
1.72823	7515.78	7	08/31/2025 16:13:15.4364
1.72825	7517.31	7	08/31/2025 16:13:17.2364
1.72827	7527.5	7	08/31/2025 16:13:19.0364
1.72829	7523.43	7	08/31/2025 16:13:20.8364
1.72833	7514.77	7	08/31/2025 16:13:22.6364
1.72832	7515.27	7	08/31/2025 16:13:24.4364
1.72836	7519.86	7	08/31/2025 16:13:26.2364
1.72835	7515.78	7	08/31/2025 16:13:28.0364
1.72843	7517.31	7	08/31/2025 16:13:29.8364
1.72845	7515.78	7	08/31/2025 16:13:31.6364
1.72846	7525.46	7	08/31/2025 16:13:33.4364
1.72851	7523.43	7	08/31/2025 16:13:35.2364
1.72849	7518.84	7	08/31/2025 16:13:37.0364
1.72855	7515.78	7	08/31/2025 16:13:38.8364
1.72855	7518.33	7	08/31/2025 16:13:40.6364
1.72858	7519.35	7	08/31/2025 16:13:42.4364
1.7286	7522.92	7	08/31/2025 16:13:44.2364
1.72863	7525.97	7	08/31/2025 16:13:46.0364
1.72868	7518.84	7	08/31/2025 16:13:47.8364
1.72874	7520.37	7	08/31/2025 16:13:49.6364
1.72882	7515.27	7	08/31/2025 16:13:51.4364
1.72878	7518.84	7	08/31/2025 16:13:53.2364
1.7288	7522.41	7	08/31/2025 16:13:55.0364
1.72882	7522.41	7	08/31/2025 16:13:56.8364
1.72889	7515.78	7	08/31/2025 16:13:58.6364
1.72888	7513.75	7	08/31/2025 16:14:00.4364
1.75725	8526.1	8	08/31/2025 16:14:02.1366
1.75715	8522.03	8	08/31/2025 16:14:03.9366
1.75707	8521.52	8	08/31/2025 16:14:05.7366
1.75707	8523.05	8	08/31/2025 16:14:07.5366
1.75704	8523.05	8	08/31/2025 16:14:09.3366
1.75703	8523.05	8	08/31/2025 16:14:11.1366
1.75707	8526.1	8	08/31/2025 16:14:12.9366
1.75709	8524.06	8	08/31/2025 16:14:14.7366
1.75707	8525.08	8	08/31/2025 16:14:16.5366
1.75713	8524.57	8	08/31/2025 16:14:18.3366
1.75719	8524.57	8	08/31/2025 16:14:20.1366
1.75719	8524.57	8	08/31/2025 16:14:21.9366
1.75724	8524.06	8	08/31/2025 16:14:23.7366
1.75729	8524.06	8	08/31/2025 16:14:25.5366
1.75732	8525.59	8	08/31/2025 16:14:27.3366
1.75739	8523.05	8	08/31/2025 16:14:29.1366
1.75735	8516.93	8	08/31/2025 16:14:30.9366
1.75727	8523.05	8	08/31/2025 16:14:32.7366
1.75723	8517.95	8	08/31/2025 16:14:34.5366
1.75728	8523.05	8	08/31/2025 16:14:36.3366
1.7573	8525.59	8	08/31/2025 16:14:38.1366
1.75732	8525.08	8	08/31/2025 16:14:39.9366
1.75737	8525.08	8	08/31/2025 16:14:41.7366
1.75737	8531.71	8	08/31/2025 16:14:43.5366
1.75738	8526.1	8	08/31/2025 16:14:45.3366
1.75739	8528.14	8	08/31/2025 16:14:47.1366
1.75738	8529.16	8	08/31/2025 16:14:48.9366
1.75739	8516.93	8	08/31/2025 16:14:50.7366
1.75744	8521.01	8	08/31/2025 16:14:52.5366
1.7574	8521.01	8	08/31/2025 16:14:54.3366
1.7574	8522.03	8	08/31/2025 16:14:56.1366
1.75735	8518.97	8	08/31/2025 16:14:57.9366
1.75739	8524.57	8	08/31/2025 16:14:59.7366
1.75747	8520.5	8	08/31/2025 16:15:01.5366
1.75747	8526.61	8	08/31/2025 16:15:03.3366
1.75742	8522.03	8	08/31/2025 16:15:05.1366
1.75751	8523.55	8	08/31/2025 16:15:06.9366
1.7574	8517.44	8	08/31/2025 16:15:08.7366
1.75744	8522.54	8	08/31/2025 16:15:10.5366
1.75737	8527.12	8	08/31/2025 16:15:12.3366
1.75745	8524.57	8	08/31/2025 16:15:14.1366
1.75745	8524.57	8	08/31/2025 16:15:15.9366
1.75745	8524.06	8	08/31/2025 16:15:17.7366
1.75756	8523.05	8	08/31/2025 16:15:19.5366
1.75744	8522.54	8	08/31/2025 16:15:21.3366
1.75739	8524.06	8	08/31/2025 16:15:23.1366
1.75742	8517.95	8	08/31/2025 16:15:24.9366
1.75756	8519.48	8	08/31/2025 16:15:26.7366
1.75764	8517.95	8	08/31/2025 16:15:28.5366
1.75762	8521.52	8	08/31/2025 16:15:30.3366
1.75764	8523.55	8	08/31/2025 16:15:32.1366
1.75767	8522.54	8	08/31/2025 16:15:33.9366
1.75753	8513.88	8	08/31/2025 16:15:35.7366
1.75755	8524.06	8	08/31/2025 16:15:37.5366
1.75755	8523.05	8	08/31/2025 16:15:39.3366
1.75771	8526.1	8	08/31/2025 16:15:41.1366
1.75764	8524.57	8	08/31/2025 16:15:42.9366
1.75773	8515.4	8	08/31/2025 16:15:44.7366
1.75777	8515.91	8	08/31/2025 16:15:46.5366
1.7576	8516.42	8	08/31/2025 16:15:48.3366
1.75772	8517.44	8	08/31/2025 16:15:50.1366
1.75781	8515.4	8	08/31/2025 16:15:51.9366
1.75776	8524.57	8	08/31/2025 16:15:53.7366
1.75767	8520.5	8	08/31/2025 16:15:55.5366
1.75783	8520.5	8	08/31/2025 16:15:57.3366
1.75789	8524.06	8	08/31/2025 16:15:59.1366
1.75789	8521.52	8	08/31/2025 16:16:00.9366
1.78603	9518.59	9	08/31/2025 16:16:02.6368
1.78609	9526.23	9	08/31/2025 16:16:04.4368
1.78611	9526.23	9	08/31/2025 16:16:06.2368
1.7861	9524.7	9	08/31/2025 16:16:08.0368
1.7861	9521.65	9	08/31/2025 16:16:09.8368
1.78612	9520.12	9	08/31/2025 16:16:11.6368
1.78615	9526.23	9	08/31/2025 16:16:13.4368
1.78619	9523.68	9	08/31/2025 16:16:15.2368
1.78621	9525.21	9	08/31/2025 16:16:17.0368
1.78624	9526.74	9	08/31/2025 16:16:18.8368
1.78623	9525.72	9	08/31/2025 16:16:20.6368
1.7863	9522.67	9	08/31/2025 16:16:22.4368
1.78631	9524.7	9	08/31/2025 16:16:24.2368
1.78636	9528.78	9	08/31/2025 16:16:26.0368
1.78635	9524.7	9	08/31/2025 16:16:27.8368
1.78638	9522.16	9	08/31/2025 16:16:29.6368
1.78644	9521.14	9	08/31/2025 16:16:31.4368
1.78647	9522.16	9	08/31/2025 16:16:33.2368
1.78648	9518.59	9	08/31/2025 16:16:35.0368
1.78648	9519.61	9	08/31/2025 16:16:36.8368
1.78652	9524.19	9	08/31/2025 16:16:38.6368
1.78654	9521.14	9	08/31/2025 16:16:40.4368
1.78656	9526.74	9	08/31/2025 16:16:42.2368
1.78658	9525.72	9	08/31/2025 16:16:44.0368
1.7866	9526.23	9	08/31/2025 16:16:45.8368
1.78662	9522.67	9	08/31/2025 16:16:47.6368
1.78664	9523.68	9	08/31/2025 16:16:49.4368
1.78666	9529.29	9	08/31/2025 16:16:51.2368
1.78672	9520.63	9	08/31/2025 16:16:53.0368
1.78676	9519.61	9	08/31/2025 16:16:54.8368
1.78679	9527.76	9	08/31/2025 16:16:56.6368
1.78676	9525.72	9	08/31/2025 16:16:58.4368
1.78682	9519.1	9	08/31/2025 16:17:00.2368
1.78678	9527.25	9	08/31/2025 16:17:02.0368
1.78684	9519.1	9	08/31/2025 16:17:03.8368
1.78682	9531.84	9	08/31/2025 16:17:05.6368
1.78682	9521.14	9	08/31/2025 16:17:07.4368
1.78688	9521.65	9	08/31/2025 16:17:09.2368
1.78689	9523.68	9	08/31/2025 16:17:11.0368
1.78689	9523.17	9	08/31/2025 16:17:12.8368
1.78691	9520.63	9	08/31/2025 16:17:14.6368
1.78692	9519.1	9	08/31/2025 16:17:16.4368
1.78693	9523.17	9	08/31/2025 16:17:18.2368
1.78694	9529.29	9	08/31/2025 16:17:20.0368
1.78696	9522.16	9	08/31/2025 16:17:21.8368
1.78698	9520.63	9	08/31/2025 16:17:23.6368
1.78698	9524.19	9	08/31/2025 16:17:25.4368
1.78698	9520.12	9	08/31/2025 16:17:27.2368
1.78698	9520.63	9	08/31/2025 16:17:29.0368
1.78704	9524.19	9	08/31/2025 16:17:30.8368
1.78703	9520.63	9	08/31/2025 16:17:32.6368
1.78704	9519.1	9	08/31/2025 16:17:34.4368
1.78708	9520.12	9	08/31/2025 16:17:36.2368
1.78705	9525.72	9	08/31/2025 16:17:38.0368
1.78708	9519.61	9	08/31/2025 16:17:39.8368
1.7871	9526.23	9	08/31/2025 16:17:41.6368
1.78712	9519.61	9	08/31/2025 16:17:43.4368
1.78715	9524.19	9	08/31/2025 16:17:45.2368
1.78719	9530.82	9	08/31/2025 16:17:47.0368
1.78717	9523.68	9	08/31/2025 16:17:48.8368
1.78719	9529.29	9	08/31/2025 16:17:50.6368
1.78721	9519.1	9	08/31/2025 16:17:52.4368
1.78722	9522.67	9	08/31/2025 16:17:54.2368
1.78723	9520.12	9	08/31/2025 16:17:56.0368
1.78725	9525.21	9	08/31/2025 16:17:57.8368
1.78725	9521.14	9	08/31/2025 16:17:59.6368
1.78727	9521.14	9	08/31/2025 16:18:01.4368
1.81521	10529.9	10	08/31/2025 16:18:03.1370
1.8152	10518.7	10	08/31/2025 16:18:04.9370
1.81504	10522.8	10	08/31/2025 16:18:06.7370
1.81504	10528.4	10	08/31/2025 16:18:08.5370
1.81508	10530.4	10	08/31/2025 16:18:10.3370
1.8151	10523.3	10	08/31/2025 16:18:12.1370
1.81511	10522.8	10	08/31/2025 16:18:13.9370
1.81514	10525.3	10	08/31/2025 16:18:15.7370
1.81515	10528.9	10	08/31/2025 16:18:17.5370
1.81519	10525.3	10	08/31/2025 16:18:19.3370
1.81516	10523.3	10	08/31/2025 16:18:21.1370
1.81521	10525.3	10	08/31/2025 16:18:22.9370
1.81521	10521.3	10	08/31/2025 16:18:24.7370
1.81521	10530.4	10	08/31/2025 16:18:26.5370
1.81525	10530.9	10	08/31/2025 16:18:28.3370
1.81529	10528.9	10	08/31/2025 16:18:30.1370
1.8153	10523.8	10	08/31/2025 16:18:31.9370
1.81533	10528.9	10	08/31/2025 16:18:33.7370
1.81535	10519.2	10	08/31/2025 16:18:35.5370
1.81535	10527.4	10	08/31/2025 16:18:37.3370
1.81536	10526.9	10	08/31/2025 16:18:39.1370
1.81537	10532	10	08/31/2025 16:18:40.9370
1.81542	10524.8	10	08/31/2025 16:18:42.7370
1.81544	10525.3	10	08/31/2025 16:18:44.5370
1.81544	10529.9	10	08/31/2025 16:18:46.3370
1.8155	10529.9	10	08/31/2025 16:18:48.1370
1.81549	10529.9	10	08/31/2025 16:18:49.9370
1.81553	10526.4	10	08/31/2025 16:18:51.7370
1.81551	10525.9	10	08/31/2025 16:18:53.5370
1.81555	10528.4	10	08/31/2025 16:18:55.3370
1.81557	10532.5	10	08/31/2025 16:18:57.1370
1.81557	10529.9	10	08/31/2025 16:18:58.9370
1.81559	10523.8	10	08/31/2025 16:19:00.7370
1.81559	10530.9	10	08/31/2025 16:19:02.5370
1.81563	10522.3	10	08/31/2025 16:19:04.3370
1.81566	10525.3	10	08/31/2025 16:19:06.1370
1.81565	10533	10	08/31/2025 16:19:07.9370
1.81569	10532.5	10	08/31/2025 16:19:09.7370
1.81573	10530.9	10	08/31/2025 16:19:11.5370
1.81572	10526.4	10	08/31/2025 16:19:13.3370
1.81574	10524.8	10	08/31/2025 16:19:15.1370
1.81577	10529.9	10	08/31/2025 16:19:16.9370
1.81578	10530.4	10	08/31/2025 16:19:18.7370
1.81583	10524.8	10	08/31/2025 16:19:20.5370
1.81584	10529.4	10	08/31/2025 16:19:22.3370
1.81584	10525.3	10	08/31/2025 16:19:24.1370
1.81587	10522.3	10	08/31/2025 16:19:25.9370
1.81588	10523.8	10	08/31/2025 16:19:27.7370
1.81591	10526.9	10	08/31/2025 16:19:29.5370
1.81594	10522.8	10	08/31/2025 16:19:31.3370
1.81594	10530.9	10	08/31/2025 16:19:33.1370
1.81597	10533	10	08/31/2025 16:19:34.9370
1.81599	10527.9	10	08/31/2025 16:19:36.7370
1.81601	10521.8	10	08/31/2025 16:19:38.5370
1.81599	10530.9	10	08/31/2025 16:19:40.3370
1.816	10526.4	10	08/31/2025 16:19:42.1370
1.81603	10521.8	10	08/31/2025 16:19:43.9370
1.81604	10523.3	10	08/31/2025 16:19:45.7370
1.81604	10524.3	10	08/31/2025 16:19:47.5370
1.81608	10526.9	10	08/31/2025 16:19:49.3370
1.81613	10521.8	10	08/31/2025 16:19:51.1370
1.81613	10525.9	10	08/31/2025 16:19:52.9370
1.81614	10533	10	08/31/2025 16:19:54.7370
1.81615	10523.3	10	08/31/2025 16:19:56.5370
1.81616	10525.9	10	08/31/2025 16:19:58.3370
1.81617	10526.9	10	08/31/2025 16:20:00.1370
1.84371	11527.5	11	08/31/2025 16:20:01.8372
1.84367	11523.4	11	08/31/2025 16:20:03.6372
1.84368	11515.3	11	08/31/2025 16:20:05.4372
1.84369	11526.5	11	08/31/2025 16:20:07.2372
1.84367	11528.5	11	08/31/2025 16:20:09.0372
1.84368	11526	11	08/31/2025 16:20:10.8372
1.84367	11525.5	11	08/31/2025 16:20:12.6372
1.84367	11521.4	11	08/31/2025 16:20:14.4372
1.84365	11529	11	08/31/2025 16:20:16.2372
1.84367	11526.5	11	08/31/2025 16:20:18.0372
1.84368	11526	11	08/31/2025 16:20:19.8372
1.84369	11522.9	11	08/31/2025 16:20:21.6372
1.84367	11521.4	11	08/31/2025 16:20:23.4372
1.84372	11530.6	11	08/31/2025 16:20:25.2372
1.84374	11516.3	11	08/31/2025 16:20:27.0372
1.84371	11526.5	11	08/31/2025 16:20:28.8372
1.8437	11523.9	11	08/31/2025 16:20:30.6372
1.84373	11521.9	11	08/31/2025 16:20:32.4372
1.84374	11521.9	11	08/31/2025 16:20:34.2372
1.84378	11517.8	11	08/31/2025 16:20:36.0372
1.84374	11515.8	11	08/31/2025 16:20:37.8372
1.8438	11520.9	11	08/31/2025 16:20:39.6372
1.8438	11517.3	11	08/31/2025 16:20:41.4372
1.84333	11522.9	11	08/31/2025 16:20:43.2372
1.84337	11526.5	11	08/31/2025 16:20:45.0372
1.84348	11526	11	08/31/2025 16:20:46.8372
1.84354	11526	11	08/31/2025 16:20:48.6372
1.84357	11520.4	11	08/31/2025 16:20:50.4372
1.84361	11526.5	11	08/31/2025 16:20:52.2372
1.8437	11518.8	11	08/31/2025 16:20:54.0372
1.84372	11528.5	11	08/31/2025 16:20:55.8372
1.84374	11519.9	11	08/31/2025 16:20:57.6372
1.84377	11517.3	11	08/31/2025 16:20:59.4372
1.84387	11528.5	11	08/31/2025 16:21:01.2372
1.84386	11528	11	08/31/2025 16:21:03.0372
1.84389	11526.5	11	08/31/2025 16:21:04.8372
1.84398	11524.5	11	08/31/2025 16:21:06.6372
1.84396	11525	11	08/31/2025 16:21:08.4372
1.84396	11526	11	08/31/2025 16:21:10.2372
1.84396	11523.4	11	08/31/2025 16:21:12.0372
1.84401	11526	11	08/31/2025 16:21:13.8372
1.844	11517.3	11	08/31/2025 16:21:15.6372
1.84403	11525	11	08/31/2025 16:21:17.4372
1.84407	11529	11	08/31/2025 16:21:19.2372
1.84408	11531.6	11	08/31/2025 16:21:21.0372
1.8441	11530.6	11	08/31/2025 16:21:22.8372
1.84413	11525.5	11	08/31/2025 16:21:24.6372
1.84408	11521.4	11	08/31/2025 16:21:26.4372
1.84411	11526	11	08/31/2025 16:21:28.2372
1.84411	11523.4	11	08/31/2025 16:21:30.0372
1.84412	11521.9	11	08/31/2025 16:21:31.8372
1.84417	11521.4	11	08/31/2025 16:21:33.6372
1.84415	11531.6	11	08/31/2025 16:21:35.4372
1.8442	11521.4	11	08/31/2025 16:21:37.2372
1.84419	11518.8	11	08/31/2025 16:21:39.0372
1.84418	11530.1	11	08/31/2025 16:21:40.8372
1.84424	11524.5	11	08/31/2025 16:21:42.6372
1.84419	11525	11	08/31/2025 16:21:44.4372
1.84421	11522.9	11	08/31/2025 16:21:46.2372
1.84426	11527	11	08/31/2025 16:21:48.0372
1.84427	11528	11	08/31/2025 16:21:49.8372
1.84429	11527	11	08/31/2025 16:21:51.6372
1.84432	11521.9	11	08/31/2025 16:21:53.4372
1.84431	11525.5	11	08/31/2025 16:21:55.2372
1.84432	11522.4	11	08/31/2025 16:21:57.0372
1.84437	11520.4	11	08/31/2025 16:21:58.8372
1.84435	11523.9	11	08/31/2025 16:22:00.6372
1.87177	12519.5	12	08/31/2025 16:22:02.3374
1.87173	12524.1	12	08/31/2025 16:22:04.1374
1.87172	12527.6	12	08/31/2025 16:22:05.9374
1.87171	12524.6	12	08/31/2025 16:22:07.7374
1.87176	12527.6	12	08/31/2025 16:22:09.5374
1.87173	12526.6	12	08/31/2025 16:22:11.3374
1.87175	12517.4	12	08/31/2025 16:22:13.1374
1.87176	12533.2	12	08/31/2025 16:22:14.9374
1.87175	12521.5	12	08/31/2025 16:22:16.7374
1.87181	12519.5	12	08/31/2025 16:22:18.5374
1.87181	12529.7	12	08/31/2025 16:22:20.3374
1.87178	12529.7	12	08/31/2025 16:22:22.1374
1.87176	12525.6	12	08/31/2025 16:22:23.9374
1.87183	12521	12	08/31/2025 16:22:25.7374
1.87183	12529.2	12	08/31/2025 16:22:27.5374
1.87186	12532.7	12	08/31/2025 16:22:29.3374
1.87188	12526.1	12	08/31/2025 16:22:31.1374
1.87187	12523.6	12	08/31/2025 16:22:32.9374
1.87187	12521.5	12	08/31/2025 16:22:34.7374
1.87188	12522.5	12	08/31/2025 16:22:36.5374
1.87189	12521	12	08/31/2025 16:22:38.3374
1.87191	12528.1	12	08/31/2025 16:22:40.1374
1.87189	12518	12	08/31/2025 16:22:41.9374
1.87184	12520	12	08/31/2025 16:22:43.7374
1.87187	12526.1	12	08/31/2025 16:22:45.5374
1.8719	12524.1	12	08/31/2025 16:22:47.3374
1.87196	12522	12	08/31/2025 16:22:49.1374
1.87199	12524.1	12	08/31/2025 16:22:50.9374
1.87197	12524.6	12	08/31/2025 16:22:52.7374
1.87193	12530.2	12	08/31/2025 16:22:54.5374
1.87191	12523	12	08/31/2025 16:22:56.3374
1.87194	12524.1	12	08/31/2025 16:22:58.1374
1.87196	12521.5	12	08/31/2025 16:22:59.9374
1.87193	12530.2	12	08/31/2025 16:23:01.7374
1.87197	12526.6	12	08/31/2025 16:23:03.5374
1.87197	12517.4	12	08/31/2025 16:23:05.3374
1.87196	12528.1	12	08/31/2025 16:23:07.1374
1.87197	12523.6	12	08/31/2025 16:23:08.9374
1.87195	12525.6	12	08/31/2025 16:23:10.7374
1.87197	12527.6	12	08/31/2025 16:23:12.5374
1.872	12530.7	12	08/31/2025 16:23:14.3374
1.872	12522.5	12	08/31/2025 16:23:16.1374
1.87201	12523	12	08/31/2025 16:23:17.9374
1.87203	12524.1	12	08/31/2025 16:23:19.7374
1.87201	12522	12	08/31/2025 16:23:21.5374
1.87205	12526.1	12	08/31/2025 16:23:23.3374
1.87205	12525.6	12	08/31/2025 16:23:25.1374
1.87206	12525.6	12	08/31/2025 16:23:26.9374
1.87205	12522	12	08/31/2025 16:23:28.7374
1.8721	12525.1	12	08/31/2025 16:23:30.5374
1.87211	12519	12	08/31/2025 16:23:32.3374
1.8721	12516.4	12	08/31/2025 16:23:34.1374
1.87213	12530.2	12	08/31/2025 16:23:35.9374
1.87218	12520.5	12	08/31/2025 16:23:37.7374
1.87217	12525.1	12	08/31/2025 16:23:39.5374
1.87216	12524.6	12	08/31/2025 16:23:41.3374
1.8722	12516.4	12	08/31/2025 16:23:43.1374
1.87221	12520.5	12	08/31/2025 16:23:44.9374
1.87225	12524.6	12	08/31/2025 16:23:46.7374
1.87226	12521	12	08/31/2025 16:23:48.5374
1.87224	12523.6	12	08/31/2025 16:23:50.3374
1.87227	12519.5	12	08/31/2025 16:23:52.1374
1.87231	12526.6	12	08/31/2025 16:23:53.9374
1.87232	12528.7	12	08/31/2025 16:23:55.7374
1.87229	12528.1	12	08/31/2025 16:23:57.5374
1.87236	12522.5	12	08/31/2025 16:23:59.3374
1.87238	12522	12	08/31/2025 16:24:01.1374
1.89959	13525.2	13	08/31/2025 16:24:02.8376
1.89955	13521.1	13	08/31/2025 16:24:04.6376
1.89959	13528.3	13	08/31/2025 16:24:06.4376
1.89957	13528.3	13	08/31/2025 16:24:08.2376
1.89962	13527.8	13	08/31/2025 16:24:10.0376
1.89961	13522.7	13	08/31/2025 16:24:11.8376
1.89958	13528.3	13	08/31/2025 16:24:13.6376
1.89964	13525.7	13	08/31/2025 16:24:15.4376
1.89959	13521.6	13	08/31/2025 16:24:17.2376
1.89959	13523.2	13	08/31/2025 16:24:19.0376
1.8996	13530.3	13	08/31/2025 16:24:20.8376
1.89963	13528.3	13	08/31/2025 16:24:22.6376
1.89964	13530.3	13	08/31/2025 16:24:24.4376
1.89963	13524.7	13	08/31/2025 16:24:26.2376
1.89967	13523.2	13	08/31/2025 16:24:28.0376
1.89971	13532.9	13	08/31/2025 16:24:29.8376
1.89967	13522.7	13	08/31/2025 16:24:31.6376
1.89974	13529.3	13	08/31/2025 16:24:33.4376
1.89976	13528.3	13	08/31/2025 16:24:35.2376
1.89981	13527.3	13	08/31/2025 16:24:37.0376
1.89983	13528.3	13	08/31/2025 16:24:38.8376
1.89981	13526.2	13	08/31/2025 16:24:40.6376
1.89986	13523.2	13	08/31/2025 16:24:42.4376
1.89988	13530.8	13	08/31/2025 16:24:44.2376
1.89989	13528.8	13	08/31/2025 16:24:46.0376
1.89993	13530.3	13	08/31/2025 16:24:47.8376
1.89991	13521.1	13	08/31/2025 16:24:49.6376
1.89994	13530.8	13	08/31/2025 16:24:51.4376
1.89997	13526.2	13	08/31/2025 16:24:53.2376
1.90001	13522.2	13	08/31/2025 16:24:55.0376
1.90003	13516.6	13	08/31/2025 16:24:56.8376
1.90007	13521.6	13	08/31/2025 16:24:58.6376
1.9001	13526.7	13	08/31/2025 16:25:00.4376
1.90008	13525.2	13	08/31/2025 16:25:02.2376
1.90007	13528.3	13	08/31/2025 16:25:04.0376
1.90013	13523.2	13	08/31/2025 16:25:05.8376
1.90017	13530.8	13	08/31/2025 16:25:07.6376
1.9002	13524.2	13	08/31/2025 16:25:09.4376
1.90022	13525.2	13	08/31/2025 16:25:11.2376
1.90025	13525.7	13	08/31/2025 16:25:13.0376
1.90022	13528.3	13	08/31/2025 16:25:14.8376
1.90024	13526.2	13	08/31/2025 16:25:16.6376
1.90026	13532.3	13	08/31/2025 16:25:18.4376
1.90028	13527.3	13	08/31/2025 16:25:20.2376
1.90029	13528.8	13	08/31/2025 16:25:22.0376
1.90038	13524.2	13	08/31/2025 16:25:23.8376
1.90033	13523.2	13	08/31/2025 16:25:25.6376
1.90038	13526.7	13	08/31/2025 16:25:27.4376
1.90039	13515.5	13	08/31/2025 16:25:29.2376
1.90039	13522.7	13	08/31/2025 16:25:31.0376
1.90039	13529.8	13	08/31/2025 16:25:32.8376
1.90036	13523.2	13	08/31/2025 16:25:34.6376
1.90036	13529.8	13	08/31/2025 16:25:36.4376
1.90037	13535.9	13	08/31/2025 16:25:38.2376
1.90041	13527.3	13	08/31/2025 16:25:40.0376
1.90045	13526.2	13	08/31/2025 16:25:41.8376
1.90046	13529.3	13	08/31/2025 16:25:43.6376
1.90045	13525.2	13	08/31/2025 16:25:45.4376
1.90046	13532.9	13	08/31/2025 16:25:47.2376
1.90045	13526.2	13	08/31/2025 16:25:49.0376
1.90047	13524.7	13	08/31/2025 16:25:50.8376
1.9005	13525.7	13	08/31/2025 16:25:52.6376
1.90051	13537.4	13	08/31/2025 16:25:54.4376
1.90052	13529.8	13	08/31/2025 16:25:56.2376
1.90061	13529.3	13	08/31/2025 16:25:58.0376
1.90061	13527.3	13	08/31/2025 16:25:59.8376
1.89997	13529.8	13	08/31/2025 16:26:01.6376
1.9269	14529.4	14	08/31/2025 16:26:03.3378
1.92696	14527.4	14	08/31/2025 16:26:05.1378
1.92699	14530.9	14	08/31/2025 16:26:06.9378
1.92708	14532	14	08/31/2025 16:26:08.7378
1.9271	14533.5	14	08/31/2025 16:26:10.5378
1.92718	14527.9	14	08/31/2025 16:26:12.3378
1.9272	14527.9	14	08/31/2025 16:26:14.1378
1.92728	14530.4	14	08/31/2025 16:26:15.9378
1.92741	14526.4	14	08/31/2025 16:26:17.7378
1.92739	14528.4	14	08/31/2025 16:26:19.5378
1.92743	14526.4	14	08/31/2025 16:26:21.3378
1.92731	14530.4	14	08/31/2025 16:26:23.1378
1.92734	14530.4	14	08/31/2025 16:26:24.9378
1.92739	14524.8	14	08/31/2025 16:26:26.7378
1.92744	14532.5	14	08/31/2025 16:26:28.5378
1.92745	14530.4	14	08/31/2025 16:26:30.3378
1.9275	14525.3	14	08/31/2025 16:26:32.1378
1.92743	14525.9	14	08/31/2025 16:26:33.9378
1.92743	14529.4	14	08/31/2025 16:26:35.7378
1.92749	14530.4	14	08/31/2025 16:26:37.5378
1.92755	14524.8	14	08/31/2025 16:26:39.3378
1.92752	14533.5	14	08/31/2025 16:26:41.1378
1.9275	14530.9	14	08/31/2025 16:26:42.9378
1.92752	14522.8	14	08/31/2025 16:26:44.7378
1.92756	14524.3	14	08/31/2025 16:26:46.5378
1.92756	14526.4	14	08/31/2025 16:26:48.3378
1.92752	14528.4	14	08/31/2025 16:26:50.1378
1.92755	14524.3	14	08/31/2025 16:26:51.9378
1.92758	14522.8	14	08/31/2025 16:26:53.7378
1.92759	14528.9	14	08/31/2025 16:26:55.5378
1.92752	14533	14	08/31/2025 16:26:57.3378
1.92752	14533	14	08/31/2025 16:26:59.1378
1.92765	14529.4	14	08/31/2025 16:27:00.9378
1.92762	14526.4	14	08/31/2025 16:27:02.7378
1.9276	14528.9	14	08/31/2025 16:27:04.5378
1.92761	14519.2	14	08/31/2025 16:27:06.3378
1.92767	14530.4	14	08/31/2025 16:27:08.1378
1.92763	14529.4	14	08/31/2025 16:27:09.9378
1.92764	14523.8	14	08/31/2025 16:27:11.7378
1.92763	14527.9	14	08/31/2025 16:27:13.5378
1.92767	14528.9	14	08/31/2025 16:27:15.3378
1.92774	14535.5	14	08/31/2025 16:27:17.1378
1.92767	14524.8	14	08/31/2025 16:27:18.9378
1.92774	14526.4	14	08/31/2025 16:27:20.7378
1.92777	14524.8	14	08/31/2025 16:27:22.5378
1.9278	14525.9	14	08/31/2025 16:27:24.3378
1.92777	14530.9	14	08/31/2025 16:27:26.1378
1.92775	14526.4	14	08/31/2025 16:27:27.9378
1.92781	14532	14	08/31/2025 16:27:29.7378
1.9278	14532	14	08/31/2025 16:27:31.5378
1.92781	14532	14	08/31/2025 16:27:33.3378
1.9278	14532	14	08/31/2025 16:27:35.1378
1.92787	14527.4	14	08/31/2025 16:27:36.9378
1.92791	14527.4	14	08/31/2025 16:27:38.7378
1.92788	14530.4	14	08/31/2025 16:27:40.5378
1.9279	14529.9	14	08/31/2025 16:27:42.3378
1.92792	14527.4	14	08/31/2025 16:27:44.1378
1.92796	14528.9	14	08/31/2025 16:27:45.9378
1.92793	14530.4	14	08/31/2025 16:27:47.7378
1.92794	14526.4	14	08/31/2025 16:27:49.5378
1.92794	14521.8	14	08/31/2025 16:27:51.3378
1.928	14527.9	14	08/31/2025 16:27:53.1378
1.92799	14525.9	14	08/31/2025 16:27:54.9378
1.92796	14527.4	14	08/31/2025 16:27:56.7378
1.92813	14527.9	14	08/31/2025 16:27:58.5378
1.92803	14519.7	14	08/31/2025 16:28:00.3378
1.95486	15523.9	15	08/31/2025 16:28:02.0380
1.95469	15530.1	15	08/31/2025 16:28:03.8380
1.95467	15527.5	15	08/31/2025 16:28:05.6380
1.95465	15531.1	15	08/31/2025 16:28:07.4380
1.95455	15526.5	15	08/31/2025 16:28:09.2380
1.95464	15524.5	15	08/31/2025 16:28:11.0380
1.95458	15525	15	08/31/2025 16:28:12.8380
1.95457	15526	15	08/31/2025 16:28:14.6380
1.95457	15531.6	15	08/31/2025 16:28:16.4380
1.95466	15525	15	08/31/2025 16:28:18.2380
1.95465	15528	15	08/31/2025 16:28:20.0380
1.95462	15527.5	15	08/31/2025 16:28:21.8380
1.95466	15530.1	15	08/31/2025 16:28:23.6380
1.95461	15522.4	15	08/31/2025 16:28:25.4380
1.95467	15526	15	08/31/2025 16:28:27.2380
1.95459	15527	15	08/31/2025 16:28:29.0380
1.95472	15526	15	08/31/2025 16:28:30.8380
1.95465	15528	15	08/31/2025 16:28:32.6380
1.95465	15528.5	15	08/31/2025 16:28:34.4380
1.95462	15525.5	15	08/31/2025 16:28:36.2380
1.95469	15527	15	08/31/2025 16:28:38.0380
1.95464	15526.5	15	08/31/2025 16:28:39.8380
1.95468	15530.1	15	08/31/2025 16:28:41.6380
1.95458	15523.9	15	08/31/2025 16:28:43.4380
1.95468	15522.9	15	08/31/2025 16:28:45.2380
1.95461	15527	15	08/31/2025 16:28:47.0380
1.95463	15526.5	15	08/31/2025 16:28:48.8380
1.95463	15518.3	15	08/31/2025 16:28:50.6380
1.95468	15526.5	15	08/31/2025 16:28:52.4380
1.95458	15527	15	08/31/2025 16:28:54.2380
1.95468	15529.5	15	08/31/2025 16:28:56.0380
1.9546	15522.4	15	08/31/2025 16:28:57.8380
1.95467	15523.9	15	08/31/2025 16:28:59.6380
1.95454	15521.9	15	08/31/2025 16:29:01.4380
1.95453	15523.4	15	08/31/2025 16:29:03.2380
1.95464	15518.9	15	08/31/2025 16:29:05.0380
1.95466	15524.5	15	08/31/2025 16:29:06.8380
1.95458	15523.4	15	08/31/2025 16:29:08.6380
1.95462	15528	15	08/31/2025 16:29:10.4380
1.95472	15527.5	15	08/31/2025 16:29:12.2380
1.95474	15523.9	15	08/31/2025 16:29:14.0380
1.95468	15531.1	15	08/31/2025 16:29:15.8380
1.95466	15519.4	15	08/31/2025 16:29:17.6380
1.95473	15526	15	08/31/2025 16:29:19.4380
1.95469	15529.5	15	08/31/2025 16:29:21.2380
1.95467	15521.9	15	08/31/2025 16:29:23.0380
1.95465	15523.4	15	08/31/2025 16:29:24.8380
1.95466	15526.5	15	08/31/2025 16:29:26.6380
1.95467	15530.6	15	08/31/2025 16:29:28.4380
1.95468	15524.5	15	08/31/2025 16:29:30.2380
1.95475	15524.5	15	08/31/2025 16:29:32.0380
1.95472	15523.9	15	08/31/2025 16:29:33.8380
1.95473	15526	15	08/31/2025 16:29:35.6380
1.95468	15530.1	15	08/31/2025 16:29:37.4380
1.95471	15521.9	15	08/31/2025 16:29:39.2380
1.9548	15531.1	15	08/31/2025 16:29:41.0380
1.95472	15517.8	15	08/31/2025 16:29:42.8380
1.95476	15524.5	15	08/31/2025 16:29:44.6380
1.95482	15525.5	15	08/31/2025 16:29:46.4380
1.95477	15530.6	15	08/31/2025 16:29:48.2380
1.9548	15520.4	15	08/31/2025 16:29:50.0380
1.95482	15531.1	15	08/31/2025 16:29:51.8380
1.95486	15528	15	08/31/2025 16:29:53.6380
1.95486	15528	15	08/31/2025 16:29:55.4380
1.95488	15528	15	08/31/2025 16:29:57.2380
1.95486	15524.5	15	08/31/2025 16:29:59.0380
1.95496	15525.5	15	08/31/2025 16:30:00.8380
1.98149	16526.1	16	08/31/2025 16:30:02.5382
1.9814	16527.6	16	08/31/2025 16:30:04.3382
1.98137	16528.7	16	08/31/2025 16:30:06.1382
1.98134	16528.7	16	08/31/2025 16:30:07.9382
1.98124	16516.9	16	08/31/2025 16:30:09.7382
1.98123	16526.1	16	08/31/2025 16:30:11.5382
1.9813	16526.1	16	08/31/2025 16:30:13.3382
1.98131	16524.1	16	08/31/2025 16:30:15.1382
1.98134	16522	16	08/31/2025 16:30:16.9382
1.98126	16523.1	16	08/31/2025 16:30:18.7382
1.98128	16529.2	16	08/31/2025 16:30:20.5382
1.98128	16524.6	16	08/31/2025 16:30:22.3382
1.98126	16528.7	16	08/31/2025 16:30:24.1382
1.98126	16527.1	16	08/31/2025 16:30:25.9382
1.98142	16522.5	16	08/31/2025 16:30:27.7382
1.98142	16528.7	16	08/31/2025 16:30:29.5382
1.98137	16526.6	16	08/31/2025 16:30:31.3382
1.98142	16535.3	16	08/31/2025 16:30:33.1382
1.98142	16531.2	16	08/31/2025 16:30:34.9382
1.98152	16524.1	16	08/31/2025 16:30:36.7382
1.9815	16532.2	16	08/31/2025 16:30:38.5382
1.98154	16537.3	16	08/31/2025 16:30:40.3382
1.98143	16525.6	16	08/31/2025 16:30:42.1382
1.98148	16528.1	16	08/31/2025 16:30:43.9382
1.98147	16527.1	16	08/31/2025 16:30:45.7382
1.98149	16533.8	16	08/31/2025 16:30:47.5382
1.98156	16531.7	16	08/31/2025 16:30:49.3382
1.98153	16522.5	16	08/31/2025 16:30:51.1382
1.98158	16520	16	08/31/2025 16:30:52.9382
1.98158	16527.1	16	08/31/2025 16:30:54.7382
1.98166	16518	16	08/31/2025 16:30:56.5382
1.98169	16529.7	16	08/31/2025 16:30:58.3382
1.98172	16522	16	08/31/2025 16:31:00.1382
1.98179	16527.1	16	08/31/2025 16:31:01.9381
1.98177	16527.6	16	08/31/2025 16:31:03.7382
1.98183	16521.5	16	08/31/2025 16:31:05.5381
1.98181	16527.6	16	08/31/2025 16:31:07.3382
1.9819	16518	16	08/31/2025 16:31:09.1381
1.9819	16521	16	08/31/2025 16:31:10.9381
1.98196	16521.5	16	08/31/2025 16:31:12.7381
1.98198	16526.6	16	08/31/2025 16:31:14.5381
1.98193	16523.6	16	08/31/2025 16:31:16.3381
1.98206	16524.1	16	08/31/2025 16:31:18.1381
1.98212	16531.2	16	08/31/2025 16:31:19.9381
1.98217	16528.1	16	08/31/2025 16:31:21.7381
1.98225	16533.2	16	08/31/2025 16:31:23.5381
1.98241	16525.6	16	08/31/2025 16:31:25.3381
1.98263	16522	16	08/31/2025 16:31:27.1381
1.9829	16520	16	08/31/2025 16:31:28.9381
1.98311	16525.1	16	08/31/2025 16:31:30.7381
1.98322	16518	16	08/31/2025 16:31:32.5381
1.98317	16527.6	16	08/31/2025 16:31:34.3381
1.98298	16531.2	16	08/31/2025 16:31:36.1381
1.98273	16525.6	16	08/31/2025 16:31:37.9381
1.98232	16524.6	16	08/31/2025 16:31:39.7381
1.98192	16526.6	16	08/31/2025 16:31:41.5381
1.98111	16525.6	16	08/31/2025 16:31:43.3381
1.98099	16530.7	16	08/31/2025 16:31:45.1381
1.98094	16524.1	16	08/31/2025 16:31:46.9381
1.98124	16519	16	08/31/2025 16:31:48.7381
1.98175	16525.1	16	08/31/2025 16:31:50.5381
1.98217	16520	16	08/31/2025 16:31:52.3381
1.98247	16529.7	16	08/31/2025 16:31:54.1381
1.98293	16522.5	16	08/31/2025 16:31:55.9381
1.98292	16527.1	16	08/31/2025 16:31:57.7381
1.98181	16523.6	16	08/31/2025 16:31:59.5381
1.9821	16526.6	16	08/31/2025 16:32:01.3381
2.00893	17531.3	17	08/31/2025 16:32:03.0383
2.00892	17525.7	17	08/31/2025 16:32:04.8383
2.00862	17526.8	17	08/31/2025 16:32:06.6383
2.00851	17529.8	17	08/31/2025 16:32:08.4383
2.00822	17532.4	17	08/31/2025 16:32:10.2383
2.00795	17529.8	17	08/31/2025 16:32:12.0383
2.00782	17528.3	17	08/31/2025 16:32:13.8383
2.00756	17528.3	17	08/31/2025 16:32:15.6383
2.00715	17528.8	17	08/31/2025 16:32:17.4383
2.00684	17530.3	17	08/31/2025 16:32:19.2383
2.00652	17523.7	17	08/31/2025 16:32:21.0383
2.00635	17527.3	17	08/31/2025 16:32:22.8383
2.00624	17524.7	17	08/31/2025 16:32:24.6383
2.00659	17528.8	17	08/31/2025 16:32:26.4383
2.0184	17535.4	17	08/31/2025 16:32:28.2383
2.05602	17531.8	17	08/31/2025 16:32:30.0383
2.0268	17525.2	17	08/31/2025 16:32:31.8383
2.01861	17529.8	17	08/31/2025 16:32:33.6383
2.01714	17529.3	17	08/31/2025 16:32:35.4383
2.01684	17528.8	17	08/31/2025 16:32:37.2383
2.01614	17529.3	17	08/31/2025 16:32:39.0383
2.01523	17526.8	17	08/31/2025 16:32:40.8383
2.01513	17532.9	17	08/31/2025 16:32:42.6383
2.18339	17528.8	17	08/31/2025 16:32:44.3755
1.31603	0.0000000E+000	17	08/31/2025 16:33:56.4639