File: example_data/Example_MEA_01/LowIV_CP/LowCurrCP_C01.txt
<Ewe/V>	I/mA	Ns	time/s
0.888629	5.21152	0	08/31/2025 13:28:26.3890
0.912774	5.12241	0	08/31/2025 13:28:28.1890
0.932891	5.17333	0	08/31/2025 13:28:29.9890
0.950055	5.1797	0	08/31/2025 13:28:31.7890
0.964925	5.12241	0	08/31/2025 13:28:33.5890
0.97827	5.13514	0	08/31/2025 13:28:35.3890
0.990392	5.1606	0	08/31/2025 13:28:37.1890
1.00154	5.20515	0	08/31/2025 13:28:38.9890
1.01199	5.09059	0	08/31/2025 13:28:40.7890
1.0219	5.1606	0	08/31/2025 13:28:42.5890
1.03132	5.16697	0	08/31/2025 13:28:44.3890
1.04044	5.23698	0	08/31/2025 13:28:46.1890
1.04917	5.22425	0	08/31/2025 13:28:47.9890
1.05775	5.23698	0	08/31/2025 13:28:49.7890
1.0661	5.14787	0	08/31/2025 13:28:51.5890
1.07442	5.12241	0	08/31/2025 13:28:53.3890
1.08246	5.14787	0	08/31/2025 13:28:55.1890
1.09041	5.17333	0	08/31/2025 13:28:56.9890
1.09828	5.18606	0	08/31/2025 13:28:58.7890
1.10587	5.17333	0	08/31/2025 13:29:00.5890
1.11342	5.22425	0	08/31/2025 13:29:02.3890
1.12102	5.1797	0	08/31/2025 13:29:04.1890
1.12834	5.10332	0	08/31/2025 13:29:05.9890
1.13553	5.21152	0	08/31/2025 13:29:07.7890
1.1428	5.1797	0	08/31/2025 13:29:09.5890
1.15009	5.14151	0	08/31/2025 13:29:11.3890
1.15737	5.14787	0	08/31/2025 13:29:13.1890
1.16462	5.18606	0	08/31/2025 13:29:14.9890
1.17177	5.1797	0	08/31/2025 13:29:16.7890
1.17888	5.16697	0	08/31/2025 13:29:18.5890
1.18607	5.14151	0	08/31/2025 13:29:20.3890
1.19339	5.22425	0	08/31/2025 13:29:22.1890
1.20067	5.24971	0	08/31/2025 13:29:23.9890
1.20798	5.10968	0	08/31/2025 13:29:25.7890
1.21542	5.23061	0	08/31/2025 13:29:27.5890
1.2229	5.12878	0	08/31/2025 13:29:29.3890
1.23024	5.1606	0	08/31/2025 13:29:31.1890
1.2375	5.25607	0	08/31/2025 13:29:32.9890
1.24473	5.13514	0	08/31/2025 13:29:34.7890
1.25202	5.20515	0	08/31/2025 13:29:36.5890
1.25927	5.08422	0	08/31/2025 13:29:38.3890
1.26647	5.26244	0	08/31/2025 13:29:40.1890
1.2736	5.18606	0	08/31/2025 13:29:41.9890
1.28072	5.22425	0	08/31/2025 13:29:43.7890
1.28788	5.14151	0	08/31/2025 13:29:45.5890
1.29507	5.19879	0	08/31/2025 13:29:47.3890
1.30228	5.30699	0	08/31/2025 13:29:49.1890
1.30954	5.25607	0	08/31/2025 13:29:50.9890
1.31672	5.18606	0	08/31/2025 13:29:52.7890
1.32373	5.21788	0	08/31/2025 13:29:54.5890
1.33053	5.19243	0	08/31/2025 13:29:56.3890
1.337	5.23061	0	08/31/2025 13:29:58.1890
1.34306	5.14151	0	08/31/2025 13:29:59.9890
1.34851	5.19879	0	08/31/2025 13:30:01.7890
1.35308	5.20515	0	08/31/2025 13:30:03.5890
1.35681	5.2879	0	08/31/2025 13:30:05.3890
1.35988	5.21788	0	08/31/2025 13:30:07.1890
1.36234	5.18606	0	08/31/2025 13:30:08.9890
1.36429	5.1606	0	08/31/2025 13:30:10.7890
1.36589	5.24334	0	08/31/2025 13:30:12.5890
1.36714	5.24971	0	08/31/2025 13:30:14.3890
1.3682	5.19879	0	08/31/2025 13:30:16.1890
1.3691	5.12878	0	08/31/2025 13:30:17.9890
1.36984	5.17333	0	08/31/2025 13:30:19.7890
1.37051	5.19879	0	08/31/2025 13:30:21.5890
1.37108	5.24334	0	08/31/2025 13:30:23.3890
1.37158	5.1606	0	08/31/2025 13:30:25.1890
1.37202	5.16697	0	08/31/2025 13:30:26.9890
1.37242	5.09695	0	08/31/2025 13:30:28.7890
1.37276	5.11605	0	08/31/2025 13:30:30.5890
1.37308	5.21152	0	08/31/2025 13:30:32.3890
1.37336	5.13514	0	08/31/2025 13:30:34.1890
1.37362	5.12241	0	08/31/2025 13:30:35.9890
1.37386	5.08422	0	08/31/2025 13:30:37.7890
1.37407	5.10968	0	08/31/2025 13:30:39.5890
1.37428	5.16697	0	08/31/2025 13:30:41.3890
1.37446	5.20515	0	08/31/2025 13:30:43.1890
1.37462	5.19243	0	08/31/2025 13:30:44.9890
1.37478	5.09695	0	08/31/2025 13:30:46.7890
1.37495	5.10968	0	08/31/2025 13:30:48.5890
1.37509	5.15424	0	08/31/2025 13:30:50.3890
1.3752	5.1797	0	08/31/2025 13:30:52.1890
1.37533	5.22425	0	08/31/2025 13:30:53.9890
1.37546	5.15424	0	08/31/2025 13:30:55.7890
1.37559	5.20515	0	08/31/2025 13:30:57.5890
1.3757	5.22425	0	08/31/2025 13:30:59.3890
1.37581	5.13514	0	08/31/2025 13:31:01.1890
1.37591	5.20515	0	08/31/2025 13:31:02.9890
1.37601	5.1797	0	08/31/2025 13:31:04.7890
1.3761	5.19243	0	08/31/2025 13:31:06.5890
1.37618	5.17333	0	08/31/2025 13:31:08.3890
1.37627	5.15424	0	08/31/2025 13:31:10.1890
1.37635	5.18606	0	08/31/2025 13:31:11.9890
1.37643	5.17333	0	08/31/2025 13:31:13.7890
1.37653	5.19243	0	08/31/2025 13:31:15.5890
1.37661	5.12878	0	08/31/2025 13:31:17.3890
1.37668	5.07786	0	08/31/2025 13:31:19.1890
1.37675	5.21152	0	08/31/2025 13:31:20.9890
1.37681	5.23698	0	08/31/2025 13:31:22.7890
1.37689	5.11605	0	08/31/2025 13:31:24.5890
1.37694	5.17333	0	08/31/2025 13:31:26.3890
1.37701	5.19243	0	08/31/2025 13:31:28.1890
1.37707	5.10332	0	08/31/2025 13:31:29.9890
1.37713	5.1606	0	08/31/2025 13:31:31.7890
1.3772	5.14787	0	08/31/2025 13:31:33.5890
1.37724	5.19243	0	08/31/2025 13:31:35.3890
1.3773	5.16697	0	08/31/2025 13:31:37.1890
1.37736	5.20515	0	08/31/2025 13:31:38.9890
1.37741	5.26244	0	08/31/2025 13:31:40.7890
1.37747	5.24334	0	08/31/2025 13:31:42.5890
1.37753	5.24334	0	08/31/2025 13:31:44.3890
1.37758	5.22425	0	08/31/2025 13:31:46.1890
1.37763	5.1797	0	08/31/2025 13:31:47.9890
1.37768	5.21788	0	08/31/2025 13:31:49.7890
1.37773	5.24971	0	08/31/2025 13:31:51.5890
1.37777	5.16697	0	08/31/2025 13:31:53.3890
1.37781	5.21152	0	08/31/2025 13:31:55.1890
1.37786	5.19243	0	08/31/2025 13:31:56.9890
1.37791	5.1606	0	08/31/2025 13:31:58.7890
1.37796	5.16697	0	08/31/2025 13:32:00.5890
1.37801	5.23061	0	08/31/2025 13:32:02.3890
1.378	5.17333	0	08/31/2025 13:32:04.1890
1.37803	5.19879	0	08/31/2025 13:32:05.9890
1.37808	5.24334	0	08/31/2025 13:32:07.7890
1.37813	5.16697	0	08/31/2025 13:32:09.5890
1.37818	5.20515	0	08/31/2025 13:32:11.3890
1.37824	5.24971	0	08/31/2025 13:32:13.1890
1.37828	5.19879	0	08/31/2025 13:32:14.9890
1.37832	5.15424	0	08/31/2025 13:32:16.7890
1.37835	5.22425	0	08/31/2025 13:32:18.5890
1.37839	5.1606	0	08/31/2025 13:32:20.3890
1.37843	5.19243	0	08/31/2025 13:32:22.1890
1.37846	5.21788	0	08/31/2025 13:32:23.9890
1.37851	5.16697	0	08/31/2025 13:32:25.7890
1.37852	5.14787	0	08/31/2025 13:32:27.5890
1.37854	5.1606	0	08/31/2025 13:32:29.3890
1.37856	5.12241	0	08/31/2025 13:32:31.1890
1.37859	5.21788	0	08/31/2025 13:32:32.9890
1.37862	5.17333	0	08/31/2025 13:32:34.7890
1.37865	5.1797	0	08/31/2025 13:32:36.5890
1.37869	5.12878	0	08/31/2025 13:32:38.3890
1.37872	5.14151	0	08/31/2025 13:32:40.1890
1.37875	5.12878	0	08/31/2025 13:32:41.9890
1.37878	5.16697	0	08/31/2025 13:32:43.7890
1.3788	5.19243	0	08/31/2025 13:32:45.5890
1.37883	5.27517	0	08/31/2025 13:32:47.3890
1.37886	5.16697	0	08/31/2025 13:32:49.1890
1.37891	5.09059	0	08/31/2025 13:32:50.9890
1.37889	5.18606	0	08/31/2025 13:32:52.7890
1.37886	5.20515	0	08/31/2025 13:32:54.5890
1.3789	5.15424	0	08/31/2025 13:32:56.3890
1.37894	5.23061	0	08/31/2025 13:32:58.1890
1.37898	5.15424	0	08/31/2025 13:32:59.9890
1.37902	5.1797	0	08/31/2025 13:33:01.7890
1.37905	5.1606	0	08/31/2025 13:33:03.5890
1.37907	5.19243	0	08/31/2025 13:33:05.3890
1.3791	5.1797	0	08/31/2025 13:33:07.1890
1.37913	5.16697	0	08/31/2025 13:33:08.9890
1.37916	5.1797	0	08/31/2025 13:33:10.7890
1.37918	5.0715	0	08/31/2025 13:33:12.5890
1.37922	5.13514	0	08/31/2025 13:33:14.3890
1.37924	5.10332	0	08/31/2025 13:33:16.1890
1.37927	5.14151	0	08/31/2025 13:33:17.9890
1.37929	5.21788	0	08/31/2025 13:33:19.7890
1.37933	5.14787	0	08/31/2025 13:33:21.5890
1.37935	5.1606	0	08/31/2025 13:33:23.3890
1.37937	5.11605	0	08/31/2025 13:33:25.1890
1.3794	5.19879	0	08/31/2025 13:33:26.9890
1.37942	5.16697	0	08/31/2025 13:33:28.7890
1.37944	5.19879	0	08/31/2025 13:33:30.5890
1.37946	5.19243	0	08/31/2025 13:33:32.3890
1.37948	5.23698	0	08/31/2025 13:33:34.1890
1.37951	5.20515	0	08/31/2025 13:33:35.9890
1.37953	5.25607	0	08/31/2025 13:33:37.7890
1.37955	5.28153	0	08/31/2025 13:33:39.5890
1.37957	5.21152	0	08/31/2025 13:33:41.3890
1.37958	5.21152	0	08/31/2025 13:33:43.1890
1.3796	5.25607	0	08/31/2025 13:33:44.9890
1.37963	5.2688	0	08/31/2025 13:33:46.7890
1.37964	5.27517	0	08/31/2025 13:33:48.5890
1.37967	5.14151	0	08/31/2025 13:33:50.3890
1.37969	5.24334	0	08/31/2025 13:33:52.1890
1.37973	5.22425	0	08/31/2025 13:33:53.9890
1.37974	5.27517	0	08/31/2025 13:33:55.7890
1.37977	5.15424	0	08/31/2025 13:33:57.5890
1.37979	5.14787	0	08/31/2025 13:33:59.3890
1.37982	5.24971	0	08/31/2025 13:34:01.1890
1.37984	5.20515	0	08/31/2025 13:34:02.9890
1.37986	5.1606	0	08/31/2025 13:34:04.7890
1.37988	5.26244	0	08/31/2025 13:34:06.5890
1.3799	5.28153	0	08/31/2025 13:34:08.3890
1.37992	5.20515	0	08/31/2025 13:34:10.1890
1.37994	5.1606	0	08/31/2025 13:34:11.9890
1.37997	5.23698	0	08/31/2025 13:34:13.7890
1.37999	5.1797	0	08/31/2025 13:34:15.5890
1.38001	5.19243	0	08/31/2025 13:34:17.3890
1.38003	5.22425	0	08/31/2025 13:34:19.1890
1.38004	5.12241	0	08/31/2025 13:34:20.9890
1.38006	5.14787	0	08/31/2025 13:34:22.7890
1.38009	5.21152	0	08/31/2025 13:34:24.5890
1.38011	5.14787	0	08/31/2025 13:34:26.3890
1.38013	5.12241	0	08/31/2025 13:34:28.1890
1.38016	5.19879	0	08/31/2025 13:34:29.9890
1.38018	5.14787	0	08/31/2025 13:34:31.7890
1.3802	5.16697	0	08/31/2025 13:34:33.5890
1.38023	5.10332	0	08/31/2025 13:34:35.3890
1.38025	5.15424	0	08/31/2025 13:34:37.1890
1.38026	5.18606	0	08/31/2025 13:34:38.9890
1.38028	5.1797	0	08/31/2025 13:34:40.7890
1.38031	5.1797	0	08/31/2025 13:34:42.5890
1.38034	5.16697	0	08/31/2025 13:34:44.3890
1.38037	5.25607	0	08/31/2025 13:34:46.1890
1.3804	5.14787	0	08/31/2025 13:34:47.9890
1.38043	5.19879	0	08/31/2025 13:34:49.7890
1.38045	5.1606	0	08/31/2025 13:34:51.5890
1.3805	5.11605	0	08/31/2025 13:34:53.3890
1.38057	5.23698	0	08/31/2025 13:34:55.1890
1.38061	5.15424	0	08/31/2025 13:34:56.9890
1.38059	5.1797	0	08/31/2025 13:34:58.7890
1.38066	5.19243	0	08/31/2025 13:35:00.5890
1.38072	5.15424	0	08/31/2025 13:35:02.3890
1.38075	5.14151	0	08/31/2025 13:35:04.1890
1.38079	5.18606	0	08/31/2025 13:35:05.9890
1.38085	5.09059	0	08/31/2025 13:35:07.7890
1.38094	5.12878	0	08/31/2025 13:35:09.5890
1.38104	5.23698	0	08/31/2025 13:35:11.3890
1.38115	5.26244	0	08/31/2025 13:35:13.1890
1.3812	5.10968	0	08/31/2025 13:35:14.9890
1.38123	5.10968	0	08/31/2025 13:35:16.7890
1.38126	5.14787	0	08/31/2025 13:35:18.5890
1.38127	5.27517	0	08/31/2025 13:35:20.3890
1.38129	5.16697	0	08/31/2025 13:35:22.1890
1.38131	5.23698	0	08/31/2025 13:35:23.9890
1.38136	5.20515	0	08/31/2025 13:35:25.7890
1.3814	5.1797	0	08/31/2025 13:35:27.5890
1.38142	5.22425	0	08/31/2025 13:35:29.3890
1.38143	5.1606	0	08/31/2025 13:35:31.1890
1.38142	5.20515	0	08/31/2025 13:35:32.9890
1.38142	5.13514	0	08/31/2025 13:35:34.7890
1.38141	5.23698	0	08/31/2025 13:35:36.5890
1.38139	5.24971	0	08/31/2025 13:35:38.3890
1.38137	5.1606	0	08/31/2025 13:35:40.1890
1.38138	5.19243	0	08/31/2025 13:35:41.9890
1.38138	5.23698	0	08/31/2025 13:35:43.7890
1.38137	5.25607	0	08/31/2025 13:35:45.5890
1.38137	5.24971	0	08/31/2025 13:35:47.3890
1.38138	5.21152	0	08/31/2025 13:35:49.1890
1.38137	5.2688	0	08/31/2025 13:35:50.9890
1.38137	5.23698	0	08/31/2025 13:35:52.7890
1.38138	5.21152	0	08/31/2025 13:35:54.5890
1.38138	5.18606	0	08/31/2025 13:35:56.3890
1.3813	5.22425	0	08/31/2025 13:35:58.1890
1.38132	5.18606	0	08/31/2025 13:35:59.9890
1.38132	5.15424	0	08/31/2025 13:36:01.7890
1.38134	5.20515	0	08/31/2025 13:36:03.5890
1.38135	5.19879	0	08/31/2025 13:36:05.3890
1.38135	5.24971	0	08/31/2025 13:36:07.1890
1.38136	5.13514	0	08/31/2025 13:36:08.9890
1.38136	5.14787	0	08/31/2025 13:36:10.7890
1.38136	5.14151	0	08/31/2025 13:36:12.5890
1.38135	5.16697	0	08/31/2025 13:36:14.3890
1.38136	5.1606	0	08/31/2025 13:36:16.1890
1.38137	5.18606	0	08/31/2025 13:36:17.9890
1.38139	5.12878	0	08/31/2025 13:36:19.7890
1.38138	5.20515	0	08/31/2025 13:36:21.5890
1.38138	5.18606	0	08/31/2025 13:36:23.3890
1.38139	5.19879	0	08/31/2025 13:36:25.1890
1.38778	10.2015	1	08/31/2025 13:36:26.9394
1.39052	10.2333	1	08/31/2025 13:36:28.7394
1.39062	10.246	1	08/31/2025 13:36:30.5394
1.39067	10.316	1	08/31/2025 13:36:32.3394
1.39071	10.316	1	08/31/2025 13:36:34.1394
1.39074	10.2269	1	08/31/2025 13:36:35.9394
1.39078	10.2779	1	08/31/2025 13:36:37.7394
1.3908	10.2333	1	08/31/2025 13:36:39.5394
1.39084	10.2969	1	08/31/2025 13:36:41.3394
1.39087	10.246	1	08/31/2025 13:36:43.1394
1.39089	10.2842	1	08/31/2025 13:36:44.9394
1.39092	10.2715	1	08/31/2025 13:36:46.7394
1.39096	10.3033	1	08/31/2025 13:36:48.5394
1.39098	10.2269	1	08/31/2025 13:36:50.3394
1.39095	10.2397	1	08/31/2025 13:36:52.1394
1.391	10.2142	1	08/31/2025 13:36:53.9394
1.39103	10.1951	1	08/31/2025 13:36:55.7394
1.39106	10.2842	1	08/31/2025 13:36:57.5394
1.3911	10.1315	1	08/31/2025 13:36:59.3394
1.39113	10.2269	1	08/31/2025 13:37:01.1394
1.39116	10.316	1	08/31/2025 13:37:02.9394
1.39118	10.2333	1	08/31/2025 13:37:04.7394
1.39121	10.2588	1	08/31/2025 13:37:06.5394
1.39123	10.2715	1	08/31/2025 13:37:08.3394
1.39126	10.2842	1	08/31/2025 13:37:10.1394
1.39129	10.2269	1	08/31/2025 13:37:11.9394
1.39131	10.2142	1	08/31/2025 13:37:13.7394
1.39133	10.2779	1	08/31/2025 13:37:15.5394
1.39136	10.2715	1	08/31/2025 13:37:17.3394
1.39138	10.1442	1	08/31/2025 13:37:19.1394
1.39138	10.2715	1	08/31/2025 13:37:20.9394
1.39141	10.1887	1	08/31/2025 13:37:22.7394
1.39143	10.2333	1	08/31/2025 13:37:24.5394
1.39145	10.2015	1	08/31/2025 13:37:26.3394
1.39147	10.1569	1	08/31/2025 13:37:28.1394
1.3915	10.176	1	08/31/2025 13:37:29.9394
1.39151	10.2078	1	08/31/2025 13:37:31.7394
1.39153	10.1951	1	08/31/2025 13:37:33.5394
1.39156	10.2078	1	08/31/2025 13:37:35.3394
1.39159	10.246	1	08/31/2025 13:37:37.1394
1.3916	10.2397	1	08/31/2025 13:37:38.9394
1.39163	10.2142	1	08/31/2025 13:37:40.7394
1.39166	10.1569	1	08/31/2025 13:37:42.5394
1.39168	10.1633	1	08/31/2025 13:37:44.3394
1.3917	10.2078	1	08/31/2025 13:37:46.1394
1.39172	10.176	1	08/31/2025 13:37:47.9394
1.39175	10.1951	1	08/31/2025 13:37:49.7394
1.39177	10.2206	1	08/31/2025 13:37:51.5394
1.39179	10.1442	1	08/31/2025 13:37:53.3394
1.3918	10.2142	1	08/31/2025 13:37:55.1394
1.39182	10.2142	1	08/31/2025 13:37:56.9394
1.39184	10.1569	1	08/31/2025 13:37:58.7394
1.39184	10.1442	1	08/31/2025 13:38:00.5394
1.39185	10.1506	1	08/31/2025 13:38:02.3394
1.39186	10.1887	1	08/31/2025 13:38:04.1394
1.39188	10.1442	1	08/31/2025 13:38:05.9394
1.39191	10.2015	1	08/31/2025 13:38:07.7394
1.39192	10.1633	1	08/31/2025 13:38:09.5394
1.39193	10.2078	1	08/31/2025 13:38:11.3394
1.39195	10.2588	1	08/31/2025 13:38:13.1394
1.39196	10.1824	1	08/31/2025 13:38:14.9394
1.39197	10.176	1	08/31/2025 13:38:16.7394
1.39198	10.1633	1	08/31/2025 13:38:18.5394
1.39199	10.1824	1	08/31/2025 13:38:20.3394
1.392	10.2333	1	08/31/2025 13:38:22.1394
1.39202	10.2142	1	08/31/2025 13:38:23.9394
1.39203	10.1442	1	08/31/2025 13:38:25.7394
1.39738	15.2233	2	08/31/2025 13:38:27.4396
1.39758	15.2169	2	08/31/2025 13:38:29.2396
1.39763	15.1596	2	08/31/2025 13:38:31.0396
1.39767	15.2551	2	08/31/2025 13:38:32.8396
1.3977	15.2423	2	08/31/2025 13:38:34.6396
1.39775	15.2169	2	08/31/2025 13:38:36.4396
1.39778	15.166	2	08/31/2025 13:38:38.2396
1.39773	15.2233	2	08/31/2025 13:38:40.0396
1.39778	15.1787	2	08/31/2025 13:38:41.8396
1.39783	15.2296	2	08/31/2025 13:38:43.6396
1.39787	15.2105	2	08/31/2025 13:38:45.4396
1.3979	15.2042	2	08/31/2025 13:38:47.2396
1.39794	15.236	2	08/31/2025 13:38:49.0396
1.39797	15.1023	2	08/31/2025 13:38:50.8396
1.39799	15.1087	2	08/31/2025 13:38:52.6396
1.39803	15.1787	2	08/31/2025 13:38:54.4396
1.39806	15.166	2	08/31/2025 13:38:56.2396
1.39809	15.1469	2	08/31/2025 13:38:58.0396
1.39811	15.1087	2	08/31/2025 13:38:59.8396
1.39813	15.2487	2	08/31/2025 13:39:01.6396
1.39816	15.1596	2	08/31/2025 13:39:03.4396
1.39817	15.1596	2	08/31/2025 13:39:05.2396
1.3982	15.166	2	08/31/2025 13:39:07.0396
1.39822	15.1405	2	08/31/2025 13:39:08.8396
1.39824	15.1787	2	08/31/2025 13:39:10.6396
1.39856	15.2423	2	08/31/2025 13:39:12.4396
1.39857	15.1723	2	08/31/2025 13:39:14.2396
1.3985	15.0705	2	08/31/2025 13:39:16.0396
1.39858	15.1723	2	08/31/2025 13:39:17.8396
1.39855	15.1914	2	08/31/2025 13:39:19.6396
1.39855	15.166	2	08/31/2025 13:39:21.4396
1.39857	15.1787	2	08/31/2025 13:39:23.2396
1.39852	15.1596	2	08/31/2025 13:39:25.0396
1.39847	15.2105	2	08/31/2025 13:39:26.8396
1.39848	15.1851	2	08/31/2025 13:39:28.6396
1.39849	15.1532	2	08/31/2025 13:39:30.4396
1.3985	15.236	2	08/31/2025 13:39:32.2396
1.39851	15.2551	2	08/31/2025 13:39:34.0396
1.39836	15.1596	2	08/31/2025 13:39:35.8396
1.39837	15.2042	2	08/31/2025 13:39:37.6396
1.39831	15.1787	2	08/31/2025 13:39:39.4396
1.39832	15.1787	2	08/31/2025 13:39:41.2396
1.39828	15.1978	2	08/31/2025 13:39:43.0396
1.39829	15.2042	2	08/31/2025 13:39:44.8396
1.39825	15.1596	2	08/31/2025 13:39:46.6396
1.39815	15.166	2	08/31/2025 13:39:48.4396
1.3981	15.1214	2	08/31/2025 13:39:50.2396
1.39815	15.1723	2	08/31/2025 13:39:52.0396
1.39816	15.1023	2	08/31/2025 13:39:53.8396
1.39813	15.1405	2	08/31/2025 13:39:55.6396
1.39816	15.2233	2	08/31/2025 13:39:57.4396
1.39806	15.2296	2	08/31/2025 13:39:59.2396
1.39809	15.2169	2	08/31/2025 13:40:01.0396
1.39812	15.1723	2	08/31/2025 13:40:02.8396
1.39803	15.1787	2	08/31/2025 13:40:04.6396
1.39799	15.2423	2	08/31/2025 13:40:06.4396
1.39802	15.2169	2	08/31/2025 13:40:08.2396
1.39803	15.2169	2	08/31/2025 13:40:10.0396
1.39806	15.2169	2	08/31/2025 13:40:11.8396
1.398	15.1978	2	08/31/2025 13:40:13.6396
1.39791	15.2233	2	08/31/2025 13:40:15.4396
1.3979	15.1596	2	08/31/2025 13:40:17.2396
1.3979	15.2487	2	08/31/2025 13:40:19.0396
1.39788	15.2742	2	08/31/2025 13:40:20.8396
1.39791	15.1469	2	08/31/2025 13:40:22.6396
1.39794	15.2678	2	08/31/2025 13:40:24.4396
1.39793	15.2487	2	08/31/2025 13:40:26.2396
1.40199	20.2769	3	08/31/2025 13:40:27.9398
1.40202	20.1368	3	08/31/2025 13:40:29.7398
1.40208	20.2387	3	08/31/2025 13:40:31.5398
1.40205	20.2196	3	08/31/2025 13:40:33.3398
1.40205	20.2323	3	08/31/2025 13:40:35.1398
1.40207	20.3023	3	08/31/2025 13:40:36.9398
1.40208	20.1623	3	08/31/2025 13:40:38.7398
1.40213	20.2578	3	08/31/2025 13:40:40.5398
1.40207	20.2959	3	08/31/2025 13:40:42.3398
1.40213	20.2132	3	08/31/2025 13:40:44.1398
1.40208	20.2196	3	08/31/2025 13:40:45.9398
1.4021	20.2705	3	08/31/2025 13:40:47.7398
1.40206	20.2323	3	08/31/2025 13:40:49.5398
1.40208	20.2132	3	08/31/2025 13:40:51.3398
1.40203	20.2259	3	08/31/2025 13:40:53.1398
1.4021	20.2578	3	08/31/2025 13:40:54.9398
1.40213	20.175	3	08/31/2025 13:40:56.7398
1.4021	20.2387	3	08/31/2025 13:40:58.5398
1.40216	20.1877	3	08/31/2025 13:41:00.3398
1.40223	20.1941	3	08/31/2025 13:41:02.1398
1.40215	20.2132	3	08/31/2025 13:41:03.9398
1.40215	20.2514	3	08/31/2025 13:41:05.7398
1.40221	20.2578	3	08/31/2025 13:41:07.5398
1.40204	20.2578	3	08/31/2025 13:41:09.3398
1.40208	20.2132	3	08/31/2025 13:41:11.1398
1.40204	20.245	3	08/31/2025 13:41:12.9398
1.40204	20.1877	3	08/31/2025 13:41:14.7398
1.40203	20.2769	3	08/31/2025 13:41:16.5398
1.40209	20.3087	3	08/31/2025 13:41:18.3398
1.40203	20.175	3	08/31/2025 13:41:20.1398
1.40206	20.2387	3	08/31/2025 13:41:21.9398
1.40204	20.1814	3	08/31/2025 13:41:23.7398
1.40201	20.2132	3	08/31/2025 13:41:25.5398
1.40203	20.2323	3	08/31/2025 13:41:27.3398
1.40202	20.2068	3	08/31/2025 13:41:29.1398
1.40203	20.1559	3	08/31/2025 13:41:30.9398
1.40203	20.3405	3	08/31/2025 13:41:32.7398
1.40207	20.3469	3	08/31/2025 13:41:34.5398
1.40203	20.3023	3	08/31/2025 13:41:36.3398
1.40208	20.245	3	08/31/2025 13:41:38.1398
1.40208	20.3214	3	08/31/2025 13:41:39.9398
1.40214	20.2323	3	08/31/2025 13:41:41.7398
1.40222	20.2196	3	08/31/2025 13:41:43.5398
1.40212	20.1941	3	08/31/2025 13:41:45.3398
1.40217	20.366	3	08/31/2025 13:41:47.1398
1.40218	20.3023	3	08/31/2025 13:41:48.9398
1.40201	20.2323	3	08/31/2025 13:41:50.7398
1.40203	20.2259	3	08/31/2025 13:41:52.5398
1.40204	20.2896	3	08/31/2025 13:41:54.3398
1.40205	20.2578	3	08/31/2025 13:41:56.1398
1.40208	20.2196	3	08/31/2025 13:41:57.9398
1.40209	20.2832	3	08/31/2025 13:41:59.7398
1.40206	20.2641	3	08/31/2025 13:42:01.5398
1.40206	20.2578	3	08/31/2025 13:42:03.3398
1.40207	20.2259	3	08/31/2025 13:42:05.1398
1.40211	20.2514	3	08/31/2025 13:42:06.9398
1.40211	20.3214	3	08/31/2025 13:42:08.7398
1.402	20.2641	3	08/31/2025 13:42:10.5398
1.40196	20.3087	3	08/31/2025 13:42:12.3398
1.40201	20.3469	3	08/31/2025 13:42:14.1398
1.40203	20.2068	3	08/31/2025 13:42:15.9398
1.40206	20.2323	3	08/31/2025 13:42:17.7398
1.40206	20.1877	3	08/31/2025 13:42:19.5398
1.402	20.2323	3	08/31/2025 13:42:21.3398
1.40201	20.1941	3	08/31/2025 13:42:23.1398
1.40201	20.2323	3	08/31/2025 13:42:24.9398
1.40453	25.1395	4	08/31/2025 13:42:26.6400
1.40513	25.165	4	08/31/2025 13:42:28.4400
1.40513	25.1459	4	08/31/2025 13:42:30.2400
1.40511	25.2095	4	08/31/2025 13:42:32.0400
1.40506	25.1395	4	08/31/2025 13:42:33.8400
1.40505	25.1713	4	08/31/2025 13:42:35.6400
1.40506	25.1013	4	08/31/2025 13:42:37.4400
1.40508	25.2159	4	08/31/2025 13:42:39.2400
1.4051	25.1332	4	08/31/2025 13:42:41.0400
1.40507	25.1204	4	08/31/2025 13:42:42.8400
1.40503	25.2732	4	08/31/2025 13:42:44.6400
1.40499	25.1777	4	08/31/2025 13:42:46.4400
1.405	25.165	4	08/31/2025 13:42:48.2400
1.4051	25.1777	4	08/31/2025 13:42:50.0400
1.4051	25.1204	4	08/31/2025 13:42:51.8400
1.40514	25.2032	4	08/31/2025 13:42:53.6400
1.40518	25.1268	4	08/31/2025 13:42:55.4400
1.40515	25.1395	4	08/31/2025 13:42:57.2400
1.40523	25.165	4	08/31/2025 13:42:59.0400
1.4053	25.1968	4	08/31/2025 13:43:00.8400
1.40539	25.2159	4	08/31/2025 13:43:02.6400
1.40545	25.1841	4	08/31/2025 13:43:04.4400
1.40549	25.2286	4	08/31/2025 13:43:06.2400
1.40533	25.2859	4	08/31/2025 13:43:08.0400
1.4051	25.2668	4	08/31/2025 13:43:09.8400
1.40517	25.2159	4	08/31/2025 13:43:11.6400
1.40523	25.2286	4	08/31/2025 13:43:13.4400
1.40521	25.165	4	08/31/2025 13:43:15.2400
1.40525	25.2986	4	08/31/2025 13:43:17.0400
1.40522	25.1841	4	08/31/2025 13:43:18.8400
1.40531	25.235	4	08/31/2025 13:43:20.6400
1.40514	25.2159	4	08/31/2025 13:43:22.4400
1.40524	25.2286	4	08/31/2025 13:43:24.2400
1.40527	25.2541	4	08/31/2025 13:43:26.0400
1.40525	25.1904	4	08/31/2025 13:43:27.8400
1.40505	25.2286	4	08/31/2025 13:43:29.6400
1.40512	25.2159	4	08/31/2025 13:43:31.4400
1.4051	25.1841	4	08/31/2025 13:43:33.2400
1.40516	25.235	4	08/31/2025 13:43:35.0400
1.40523	25.165	4	08/31/2025 13:43:36.8400
1.40507	25.2223	4	08/31/2025 13:43:38.6400
1.40499	25.2159	4	08/31/2025 13:43:40.4400
1.4051	25.2732	4	08/31/2025 13:43:42.2400
1.40516	25.2414	4	08/31/2025 13:43:44.0400
1.40515	25.235	4	08/31/2025 13:43:45.8400
1.40503	25.2159	4	08/31/2025 13:43:47.6400
1.4051	25.1968	4	08/31/2025 13:43:49.4400
1.40522	25.1522	4	08/31/2025 13:43:51.2400
1.40534	25.1713	4	08/31/2025 13:43:53.0400
1.40545	25.2477	4	08/31/2025 13:43:54.8400
1.40551	25.1332	4	08/31/2025 13:43:56.6400
1.4056	25.1777	4	08/31/2025 13:43:58.4400
1.40565	25.1459	4	08/31/2025 13:44:00.2400
1.40573	25.2095	4	08/31/2025 13:44:02.0400
1.40584	25.1013	4	08/31/2025 13:44:03.8400
1.40581	25.1904	4	08/31/2025 13:44:05.6400
1.40586	25.1332	4	08/31/2025 13:44:07.4400
1.40588	25.1077	4	08/31/2025 13:44:09.2400
1.40596	25.1077	4	08/31/2025 13:44:11.0400
1.406	25.2095	4	08/31/2025 13:44:12.8400
1.40603	25.165	4	08/31/2025 13:44:14.6400
1.40607	25.1777	4	08/31/2025 13:44:16.4400
1.40614	25.1968	4	08/31/2025 13:44:18.2400
1.40615	25.2477	4	08/31/2025 13:44:20.0400
1.40623	25.1077	4	08/31/2025 13:44:21.8400
1.40619	25.1968	4	08/31/2025 13:44:23.6400
1.40613	25.1713	4	08/31/2025 13:44:25.4400
1.40871	30.1677	5	08/31/2025 13:44:27.1402
1.40852	30.1931	5	08/31/2025 13:44:28.9402
1.40853	30.2377	5	08/31/2025 13:44:30.7402
1.40861	30.3395	5	08/31/2025 13:44:32.5402
1.40868	30.2631	5	08/31/2025 13:44:34.3402
1.40873	30.3395	5	08/31/2025 13:44:36.1402
1.40869	30.314	5	08/31/2025 13:44:37.9402
1.40856	30.2759	5	08/31/2025 13:44:39.7402
1.40868	30.3204	5	08/31/2025 13:44:41.5402
1.40873	30.2313	5	08/31/2025 13:44:43.3402
1.40852	30.2186	5	08/31/2025 13:44:45.1402
1.40839	30.2822	5	08/31/2025 13:44:46.9402
1.40846	30.3331	5	08/31/2025 13:44:48.7402
1.40839	30.2886	5	08/31/2025 13:44:50.5402
1.40854	30.2504	5	08/31/2025 13:44:52.3402
1.40857	30.2695	5	08/31/2025 13:44:54.1402
1.40859	30.2695	5	08/31/2025 13:44:55.9402
1.40862	30.2504	5	08/31/2025 13:44:57.7402
1.40862	30.2695	5	08/31/2025 13:44:59.5402
1.40876	30.314	5	08/31/2025 13:45:01.3402
1.40862	30.3077	5	08/31/2025 13:45:03.1402
1.40871	30.3268	5	08/31/2025 13:45:04.9402
1.40884	30.2313	5	08/31/2025 13:45:06.7402
1.40883	30.2695	5	08/31/2025 13:45:08.5402
1.40876	30.2759	5	08/31/2025 13:45:10.3402
1.40879	30.2822	5	08/31/2025 13:45:12.1402
1.40893	30.2568	5	08/31/2025 13:45:13.9402
1.40879	30.2886	5	08/31/2025 13:45:15.7402
1.40877	30.244	5	08/31/2025 13:45:17.5402
1.40885	30.2249	5	08/31/2025 13:45:19.3402
1.40889	30.2504	5	08/31/2025 13:45:21.1402
1.40897	30.2186	5	08/31/2025 13:45:22.9402
1.40904	30.2122	5	08/31/2025 13:45:24.7402
1.40916	30.3077	5	08/31/2025 13:45:26.5402
1.4088	30.314	5	08/31/2025 13:45:28.3402
1.40893	30.244	5	08/31/2025 13:45:30.1402
1.40901	30.2249	5	08/31/2025 13:45:31.9402
1.40883	30.1995	5	08/31/2025 13:45:33.7402
1.40889	30.1868	5	08/31/2025 13:45:35.5402
1.40894	30.2568	5	08/31/2025 13:45:37.3402
1.40905	30.2186	5	08/31/2025 13:45:39.1402
1.40915	30.2249	5	08/31/2025 13:45:40.9402
1.40914	30.2504	5	08/31/2025 13:45:42.7402
1.40927	30.2122	5	08/31/2025 13:45:44.5402
1.40892	30.2058	5	08/31/2025 13:45:46.3402
1.40892	30.2122	5	08/31/2025 13:45:48.1402
1.40908	30.2058	5	08/31/2025 13:45:49.9402
1.40886	30.2504	5	08/31/2025 13:45:51.7402
1.40899	30.2122	5	08/31/2025 13:45:53.5402
1.40897	30.2122	5	08/31/2025 13:45:55.3402
1.40885	30.2759	5	08/31/2025 13:45:57.1402
1.40896	30.2377	5	08/31/2025 13:45:58.9402
1.40909	30.2504	5	08/31/2025 13:46:00.7402
1.40922	30.1868	5	08/31/2025 13:46:02.5402
1.40933	30.244	5	08/31/2025 13:46:04.3402
1.40945	30.2568	5	08/31/2025 13:46:06.1402
1.40948	30.2822	5	08/31/2025 13:46:07.9402
1.40913	30.314	5	08/31/2025 13:46:09.7402
1.40927	30.2186	5	08/31/2025 13:46:11.5402
1.40924	30.2568	5	08/31/2025 13:46:13.3402
1.40929	30.2313	5	08/31/2025 13:46:15.1402
1.40935	30.2631	5	08/31/2025 13:46:16.9402
1.4093	30.1613	5	08/31/2025 13:46:18.7402
1.40935	30.3013	5	08/31/2025 13:46:20.5402
1.40934	30.1995	5	08/31/2025 13:46:22.3402
1.40943	30.1677	5	08/31/2025 13:46:24.1402
1.40932	30.2759	5	08/31/2025 13:46:25.9402
1.41174	35.234	6	08/31/2025 13:46:27.6404
1.41185	35.234	6	08/31/2025 13:46:29.4404
1.41186	35.2085	6	08/31/2025 13:46:31.2404
1.41201	35.2213	6	08/31/2025 13:46:33.0404
1.41207	35.2658	6	08/31/2025 13:46:34.8404
1.41202	35.2276	6	08/31/2025 13:46:36.6404
1.41209	35.1449	6	08/31/2025 13:46:38.4404
1.41223	35.304	6	08/31/2025 13:46:40.2404
1.4123	35.2022	6	08/31/2025 13:46:42.0404
1.41197	35.304	6	08/31/2025 13:46:43.8404
1.41211	35.2085	6	08/31/2025 13:46:45.6404
1.41224	35.2594	6	08/31/2025 13:46:47.4404
1.41205	35.2085	6	08/31/2025 13:46:49.2404
1.41205	35.1767	6	08/31/2025 13:46:51.0404
1.41217	35.1131	6	08/31/2025 13:46:52.8404
1.41226	35.1703	6	08/31/2025 13:46:54.6404
1.4123	35.1512	6	08/31/2025 13:46:56.4404
1.41225	35.1958	6	08/31/2025 13:46:58.2404
1.41238	35.1512	6	08/31/2025 13:47:00.0404
1.41235	35.1894	6	08/31/2025 13:47:01.8404
1.41246	35.2022	6	08/31/2025 13:47:03.6404
1.41227	35.164	6	08/31/2025 13:47:05.4404
1.41232	35.2467	6	08/31/2025 13:47:07.2404
1.41234	35.1703	6	08/31/2025 13:47:09.0404
1.41227	35.1385	6	08/31/2025 13:47:10.8404
1.41233	35.1449	6	08/31/2025 13:47:12.6404
1.41235	35.1703	6	08/31/2025 13:47:14.4404
1.41232	35.1958	6	08/31/2025 13:47:16.2404
1.41227	35.1894	6	08/31/2025 13:47:18.0404
1.41239	35.1894	6	08/31/2025 13:47:19.8404
1.4125	35.1322	6	08/31/2025 13:47:21.6404
1.41255	35.1131	6	08/31/2025 13:47:23.4404
1.41247	35.1831	6	08/31/2025 13:47:25.2404
1.41257	35.1894	6	08/31/2025 13:47:27.0404
1.41254	35.1767	6	08/31/2025 13:47:28.8404
1.41249	35.1958	6	08/31/2025 13:47:30.6404
1.41251	35.164	6	08/31/2025 13:47:32.4404
1.41242	35.1894	6	08/31/2025 13:47:34.2404
1.41248	35.1894	6	08/31/2025 13:47:36.0404
1.41253	35.2085	6	08/31/2025 13:47:37.8404
1.41251	35.1194	6	08/31/2025 13:47:39.6404
1.41255	35.1894	6	08/31/2025 13:47:41.4404
1.4124	35.1131	6	08/31/2025 13:47:43.2404
1.41249	35.1385	6	08/31/2025 13:47:45.0404
1.4125	35.2785	6	08/31/2025 13:47:46.8404
1.41257	35.1258	6	08/31/2025 13:47:48.6404
1.41263	35.1385	6	08/31/2025 13:47:50.4404
1.41253	35.1767	6	08/31/2025 13:47:52.2404
1.41259	35.1194	6	08/31/2025 13:47:54.0404
1.41257	35.2149	6	08/31/2025 13:47:55.8404
1.41259	35.2149	6	08/31/2025 13:47:57.6404
1.4125	35.2976	6	08/31/2025 13:47:59.4404
1.41264	35.1831	6	08/31/2025 13:48:01.2404
1.41257	35.1958	6	08/31/2025 13:48:03.0404
1.41264	35.1894	6	08/31/2025 13:48:04.8404
1.41253	35.2149	6	08/31/2025 13:48:06.6404
1.41266	35.234	6	08/31/2025 13:48:08.4404
1.41278	35.2213	6	08/31/2025 13:48:10.2404
1.41273	35.2085	6	08/31/2025 13:48:12.0404
1.41284	35.1703	6	08/31/2025 13:48:13.8404
1.41272	35.1322	6	08/31/2025 13:48:15.6404
1.41282	35.2531	6	08/31/2025 13:48:17.4404
1.41275	35.1576	6	08/31/2025 13:48:19.2404
1.41279	35.2276	6	08/31/2025 13:48:21.0404
1.41274	35.2022	6	08/31/2025 13:48:22.8404
1.41277	35.2467	6	08/31/2025 13:48:24.6404
1.41263	35.2085	6	08/31/2025 13:48:26.3406
1.41468	40.2048	7	08/31/2025 13:48:28.1406
1.41486	40.2367	7	08/31/2025 13:48:29.9406
1.41488	40.2558	7	08/31/2025 13:48:31.7406
1.41502	40.2048	7	08/31/2025 13:48:33.5406
1.41508	40.2494	7	08/31/2025 13:48:35.3406
1.41507	40.2303	7	08/31/2025 13:48:37.1406
1.41503	40.2176	7	08/31/2025 13:48:38.9406
1.41515	40.173	7	08/31/2025 13:48:40.7406
1.41523	40.2112	7	08/31/2025 13:48:42.5406
1.41509	40.2048	7	08/31/2025 13:48:44.3406
1.41523	40.243	7	08/31/2025 13:48:46.1406
1.41516	40.2494	7	08/31/2025 13:48:47.9406
1.41521	40.1858	7	08/31/2025 13:48:49.7406
1.4153	40.2303	7	08/31/2025 13:48:51.5406
1.41524	40.2494	7	08/31/2025 13:48:53.3406
1.41509	40.2176	7	08/31/2025 13:48:55.1406
1.41523	40.2367	7	08/31/2025 13:48:56.9406
1.41536	40.2494	7	08/31/2025 13:48:58.7406
1.41532	40.2367	7	08/31/2025 13:49:00.5406
1.41535	40.2176	7	08/31/2025 13:49:02.3406
1.41528	40.2685	7	08/31/2025 13:49:04.1406
1.41534	40.1476	7	08/31/2025 13:49:05.9406
1.41529	40.2749	7	08/31/2025 13:49:07.7406
1.41532	40.2367	7	08/31/2025 13:49:09.5406
1.4155	40.2749	7	08/31/2025 13:49:11.3406
1.41547	40.1985	7	08/31/2025 13:49:13.1406
1.41545	40.1985	7	08/31/2025 13:49:14.9406
1.41549	40.2239	7	08/31/2025 13:49:16.7406
1.41558	40.2303	7	08/31/2025 13:49:18.5406
1.4154	40.2239	7	08/31/2025 13:49:20.3406
1.4154	40.2112	7	08/31/2025 13:49:22.1406
1.41528	40.1094	7	08/31/2025 13:49:23.9406
1.41539	40.2176	7	08/31/2025 13:49:25.7406
1.41525	40.2112	7	08/31/2025 13:49:27.5406
1.41537	40.2749	7	08/31/2025 13:49:29.3406
1.41523	40.1858	7	08/31/2025 13:49:31.1406
1.41536	40.364	7	08/31/2025 13:49:32.9406
1.4154	40.2239	7	08/31/2025 13:49:34.7406
1.41528	40.2685	7	08/31/2025 13:49:36.5406
1.41528	40.3003	7	08/31/2025 13:49:38.3406
1.41535	40.2876	7	08/31/2025 13:49:40.1406
1.41534	40.2812	7	08/31/2025 13:49:41.9406
1.41538	40.2176	7	08/31/2025 13:49:43.7406
1.41542	40.313	7	08/31/2025 13:49:45.5406
1.41543	40.2367	7	08/31/2025 13:49:47.3406
1.41544	40.2494	7	08/31/2025 13:49:49.1406
1.41533	40.3321	7	08/31/2025 13:49:50.9406
1.41537	40.2112	7	08/31/2025 13:49:52.7406
1.41545	40.3321	7	08/31/2025 13:49:54.5406
1.41549	40.2749	7	08/31/2025 13:49:56.3406
1.41547	40.3321	7	08/31/2025 13:49:58.1406
1.41545	40.2176	7	08/31/2025 13:49:59.9406
1.4155	40.2176	7	08/31/2025 13:50:01.7406
1.4155	40.3194	7	08/31/2025 13:50:03.5406
1.41554	40.2621	7	08/31/2025 13:50:05.3406
1.41554	40.2112	7	08/31/2025 13:50:07.1406
1.4156	40.294	7	08/31/2025 13:50:08.9406
1.41564	40.243	7	08/31/2025 13:50:10.7406
1.41561	40.1985	7	08/31/2025 13:50:12.5406
1.41558	40.2749	7	08/31/2025 13:50:14.3406
1.41563	40.2367	7	08/31/2025 13:50:16.1406
1.41561	40.2112	7	08/31/2025 13:50:17.9406
1.41558	40.173	7	08/31/2025 13:50:19.7406
1.41562	40.2558	7	08/31/2025 13:50:21.5406
1.41559	40.3067	7	08/31/2025 13:50:23.3406
1.41562	40.3003	7	08/31/2025 13:50:25.1406
1.41745	45.2457	8	08/31/2025 13:50:26.8408
1.41749	45.1693	8	08/31/2025 13:50:28.6408
1.41755	45.2266	8	08/31/2025 13:50:30.4408
1.41753	45.2394	8	08/31/2025 13:50:32.2408
1.41738	45.1821	8	08/31/2025 13:50:34.0408
1.41753	45.1439	8	08/31/2025 13:50:35.8408
1.41758	45.2266	8	08/31/2025 13:50:37.6408
1.41761	45.1375	8	08/31/2025 13:50:39.4408
1.41765	45.2266	8	08/31/2025 13:50:41.2408
1.4176	45.2012	8	08/31/2025 13:50:43.0408
1.41765	45.1121	8	08/31/2025 13:50:44.8408
1.41767	45.1184	8	08/31/2025 13:50:46.6408
1.41759	45.1693	8	08/31/2025 13:50:48.4408
1.41761	45.1502	8	08/31/2025 13:50:50.2408
1.41753	45.1821	8	08/31/2025 13:50:52.0408
1.41756	45.2775	8	08/31/2025 13:50:53.8408
1.41759	45.2775	8	08/31/2025 13:50:55.6408
1.41752	45.0866	8	08/31/2025 13:50:57.4408
1.41756	45.1312	8	08/31/2025 13:50:59.2408
1.41749	45.1821	8	08/31/2025 13:51:01.0408
1.41753	45.2457	8	08/31/2025 13:51:02.8408
1.41755	45.1693	8	08/31/2025 13:51:04.6408
1.41748	45.1884	8	08/31/2025 13:51:06.4408
1.41737	45.2457	8	08/31/2025 13:51:08.2408
1.41751	45.2585	8	08/31/2025 13:51:10.0408
1.4175	45.2585	8	08/31/2025 13:51:11.8408
1.41744	45.2012	8	08/31/2025 13:51:13.6408
1.41748	45.1757	8	08/31/2025 13:51:15.4408
1.41742	45.2075	8	08/31/2025 13:51:17.2408
1.41731	45.2012	8	08/31/2025 13:51:19.0408
1.41733	45.1184	8	08/31/2025 13:51:20.8408
1.41736	45.1502	8	08/31/2025 13:51:22.6408
1.41732	45.1757	8	08/31/2025 13:51:24.4408
1.41738	45.1693	8	08/31/2025 13:51:26.2408
1.41743	45.2266	8	08/31/2025 13:51:28.0408
1.41751	45.2012	8	08/31/2025 13:51:29.8408
1.41742	45.2585	8	08/31/2025 13:51:31.6408
1.41747	45.2903	8	08/31/2025 13:51:33.4408
1.41753	45.2139	8	08/31/2025 13:51:35.2408
1.41735	45.1693	8	08/31/2025 13:51:37.0408
1.41727	45.2585	8	08/31/2025 13:51:38.8408
1.41723	45.1757	8	08/31/2025 13:51:40.6408
1.41742	45.2075	8	08/31/2025 13:51:42.4408
1.41751	45.2585	8	08/31/2025 13:51:44.2408
1.41748	45.1121	8	08/31/2025 13:51:46.0408
1.41755	45.2266	8	08/31/2025 13:51:47.8408
1.41763	45.1375	8	08/31/2025 13:51:49.6408
1.41762	45.1439	8	08/31/2025 13:51:51.4408
1.41768	45.1566	8	08/31/2025 13:51:53.2408
1.41774	45.1693	8	08/31/2025 13:51:55.0408
1.41777	45.1757	8	08/31/2025 13:51:56.8408
1.4178	45.1121	8	08/31/2025 13:51:58.6408
1.41777	45.1248	8	08/31/2025 13:52:00.4408
1.41769	45.1566	8	08/31/2025 13:52:02.2408
1.41766	45.1502	8	08/31/2025 13:52:04.0408
1.4178	45.2075	8	08/31/2025 13:52:05.8408
1.4178	45.1248	8	08/31/2025 13:52:07.6408
1.41779	45.1248	8	08/31/2025 13:52:09.4408
1.41785	45.1566	8	08/31/2025 13:52:11.2408
1.41775	45.163	8	08/31/2025 13:52:13.0408
1.41782	45.2012	8	08/31/2025 13:52:14.8408
1.41787	45.1439	8	08/31/2025 13:52:16.6408
1.41785	45.1439	8	08/31/2025 13:52:18.4408
1.4179	45.1884	8	08/31/2025 13:52:20.2408
1.41797	45.1248	8	08/31/2025 13:52:22.0408
1.41795	45.2203	8	08/31/2025 13:52:23.8408
1.41774	45.1884	8	08/31/2025 13:52:25.6408
1.41943	50.1911	9	08/31/2025 13:52:27.3410
1.41955	50.2548	9	08/31/2025 13:52:29.1410
1.41955	50.2611	9	08/31/2025 13:52:30.9410
1.41966	50.2802	9	08/31/2025 13:52:32.7410
1.41974	50.2993	9	08/31/2025 13:52:34.5410
1.41974	50.2102	9	08/31/2025 13:52:36.3410
1.41981	50.242	9	08/31/2025 13:52:38.1410
1.41986	50.2102	9	08/31/2025 13:52:39.9410
1.41993	50.2484	9	08/31/2025 13:52:41.7410
1.41999	50.2548	9	08/31/2025 13:52:43.5410
1.41995	50.2802	9	08/31/2025 13:52:45.3410
1.41989	50.2548	9	08/31/2025 13:52:47.1410
1.41995	50.1657	9	08/31/2025 13:52:48.9410
1.41996	50.2039	9	08/31/2025 13:52:50.7410
1.41998	50.2993	9	08/31/2025 13:52:52.5410
1.42003	50.2357	9	08/31/2025 13:52:54.3410
1.41999	50.2548	9	08/31/2025 13:52:56.1410
1.41994	50.3184	9	08/31/2025 13:52:57.9410
1.4201	50.1911	9	08/31/2025 13:52:59.7410
1.42017	50.2611	9	08/31/2025 13:53:01.5410
1.42009	50.3566	9	08/31/2025 13:53:03.3410
1.42012	50.3566	9	08/31/2025 13:53:05.1410
1.42008	50.2611	9	08/31/2025 13:53:06.9410
1.42011	50.2611	9	08/31/2025 13:53:08.7410
1.4202	50.242	9	08/31/2025 13:53:10.5410
1.42014	50.2102	9	08/31/2025 13:53:12.3410
1.42018	50.2993	9	08/31/2025 13:53:14.1410
1.42022	50.2039	9	08/31/2025 13:53:15.9410
1.42016	50.1848	9	08/31/2025 13:53:17.7410
1.41996	50.172	9	08/31/2025 13:53:19.5410
1.42001	50.2357	9	08/31/2025 13:53:21.3410
1.42006	50.2102	9	08/31/2025 13:53:23.1410
1.42002	50.2357	9	08/31/2025 13:53:24.9410
1.42016	50.2484	9	08/31/2025 13:53:26.7410
1.42015	50.2357	9	08/31/2025 13:53:28.5410
1.42015	50.1784	9	08/31/2025 13:53:30.3410
1.42009	50.1911	9	08/31/2025 13:53:32.1410
1.42014	50.1657	9	08/31/2025 13:53:33.9410
1.42018	50.1911	9	08/31/2025 13:53:35.7410
1.42015	50.1529	9	08/31/2025 13:53:37.5410
1.41999	50.2039	9	08/31/2025 13:53:39.3410
1.42003	50.2229	9	08/31/2025 13:53:41.1410
1.42008	50.2357	9	08/31/2025 13:53:42.9410
1.42016	50.2229	9	08/31/2025 13:53:44.7410
1.42021	50.2229	9	08/31/2025 13:53:46.5410
1.42026	50.172	9	08/31/2025 13:53:48.3410
1.4201	50.2229	9	08/31/2025 13:53:50.1410
1.42014	50.2802	9	08/31/2025 13:53:51.9410
1.42019	50.172	9	08/31/2025 13:53:53.7410
1.42033	50.2293	9	08/31/2025 13:53:55.5410
1.42029	50.2166	9	08/31/2025 13:53:57.3410
1.42032	50.1784	9	08/31/2025 13:53:59.1410
1.42027	50.1593	9	08/31/2025 13:54:00.9410
1.42031	50.172	9	08/31/2025 13:54:02.7410
1.42031	50.2229	9	08/31/2025 13:54:04.5410
1.42021	50.2548	9	08/31/2025 13:54:06.3410
1.42032	50.1784	9	08/31/2025 13:54:08.1410
1.42033	50.1211	9	08/31/2025 13:54:09.9410
1.42033	50.2039	9	08/31/2025 13:54:11.7410
1.42015	50.172	9	08/31/2025 13:54:13.5410
1.42021	50.1911	9	08/31/2025 13:54:15.3410
1.42027	50.2611	9	08/31/2025 13:54:17.1410
1.42033	50.1275	9	08/31/2025 13:54:18.9410
1.42039	50.242	9	08/31/2025 13:54:20.7410
1.42022	50.1975	9	08/31/2025 13:54:22.5410
1.42036	50.1848	9	08/31/2025 13:54:24.3410
1.42041	50.2039	9	08/31/2025 13:54:26.1410
1.43194	100.288	10	08/31/2025 13:54:27.8412
1.43217	100.218	10	08/31/2025 13:54:29.6412
1.43235	100.307	10	08/31/2025 13:54:31.4412
1.43248	100.288	10	08/31/2025 13:54:33.2412
1.43261	100.294	10	08/31/2025 13:54:35.0412
1.4328	100.269	10	08/31/2025 13:54:36.8412
1.43287	100.199	10	08/31/2025 13:54:38.6412
1.43291	100.307	10	08/31/2025 13:54:40.4412
1.43294	100.307	10	08/31/2025 13:54:42.2412
1.43296	100.301	10	08/31/2025 13:54:44.0412
1.43296	100.294	10	08/31/2025 13:54:45.8412
1.433	100.294	10	08/31/2025 13:54:47.6412
1.43309	100.237	10	08/31/2025 13:54:49.4412
1.43296	100.25	10	08/31/2025 13:54:51.2412
1.43307	100.263	10	08/31/2025 13:54:53.0412
1.4331	100.231	10	08/31/2025 13:54:54.8412
1.43323	100.192	10	08/31/2025 13:54:56.6412
1.43325	100.186	10	08/31/2025 13:54:58.4412
1.43327	100.129	10	08/31/2025 13:55:00.2412
1.43337	100.282	10	08/31/2025 13:55:02.0412
1.43337	100.269	10	08/31/2025 13:55:03.8412
1.4334	100.243	10	08/31/2025 13:55:05.6412
1.43347	100.167	10	08/31/2025 13:55:07.4412
1.43348	100.263	10	08/31/2025 13:55:09.2412
1.43349	100.288	10	08/31/2025 13:55:11.0412
1.43347	100.167	10	08/31/2025 13:55:12.8412
1.43347	100.288	10	08/31/2025 13:55:14.6412
1.43296	100.263	10	08/31/2025 13:55:16.4412
1.43287	100.358	10	08/31/2025 13:55:18.2412
1.43293	100.231	10	08/31/2025 13:55:20.0412
1.43299	100.25	10	08/31/2025 13:55:21.8412
1.43307	100.339	10	08/31/2025 13:55:23.6412
1.43319	100.237	10	08/31/2025 13:55:25.4412
1.43322	100.25	10	08/31/2025 13:55:27.2412
1.43328	100.243	10	08/31/2025 13:55:29.0412
1.43328	100.243	10	08/31/2025 13:55:30.8412
1.43331	100.243	10	08/31/2025 13:55:32.6412
1.43338	100.186	10	08/31/2025 13:55:34.4412
1.43336	100.148	10	08/31/2025 13:55:36.2412
1.43338	100.167	10	08/31/2025 13:55:38.0412
1.43333	100.25	10	08/31/2025 13:55:39.8412
1.43341	100.231	10	08/31/2025 13:55:41.6412
1.43338	100.224	10	08/31/2025 13:55:43.4412
1.43345	100.11	10	08/31/2025 13:55:45.2412
1.4335	100.263	10	08/31/2025 13:55:47.0412
1.43359	100.186	10	08/31/2025 13:55:48.8412
1.43361	100.18	10	08/31/2025 13:55:50.6412
1.43369	100.345	10	08/31/2025 13:55:52.4412
1.43367	100.186	10	08/31/2025 13:55:54.2412
1.43374	100.142	10	08/31/2025 13:55:56.0412
1.43372	100.199	10	08/31/2025 13:55:57.8412
1.43379	100.142	10	08/31/2025 13:55:59.6412
1.4338	100.167	10	08/31/2025 13:56:01.4412
1.43378	100.263	10	08/31/2025 13:56:03.2412
1.43384	100.333	10	08/31/2025 13:56:05.0412
1.4338	100.326	10	08/31/2025 13:56:06.8412
1.43388	100.301	10	08/31/2025 13:56:08.6412
1.43383	100.307	10	08/31/2025 13:56:10.4412
1.4339	100.294	10	08/31/2025 13:56:12.2412
1.43389	100.288	10	08/31/2025 13:56:14.0412
1.43396	100.282	10	08/31/2025 13:56:15.8412
1.4339	100.313	10	08/31/2025 13:56:17.6412
1.43395	100.377	10	08/31/2025 13:56:19.4412
1.43391	100.212	10	08/31/2025 13:56:21.2412
1.43397	100.243	10	08/31/2025 13:56:23.0412
1.43392	100.377	10	08/31/2025 13:56:24.8412
1.44686	200.24	11	08/31/2025 13:56:26.5414
1.44725	200.265	11	08/31/2025 13:56:28.3414
1.4474	200.373	11	08/31/2025 13:56:30.1414
1.44753	200.297	11	08/31/2025 13:56:31.9414
1.44761	200.329	11	08/31/2025 13:56:33.7414
1.44767	200.221	11	08/31/2025 13:56:35.5414
1.44776	200.278	11	08/31/2025 13:56:37.3414
1.44781	200.316	11	08/31/2025 13:56:39.1414
1.4478	200.361	11	08/31/2025 13:56:40.9414
1.4479	200.316	11	08/31/2025 13:56:42.7414
1.44793	200.297	11	08/31/2025 13:56:44.5414
1.44797	200.297	11	08/31/2025 13:56:46.3414
1.44803	200.354	11	08/31/2025 13:56:48.1414
1.4481	200.278	11	08/31/2025 13:56:49.9414
1.44817	200.284	11	08/31/2025 13:56:51.7414
1.44825	200.278	11	08/31/2025 13:56:53.5414
1.44824	200.303	11	08/31/2025 13:56:55.3414
1.4483	200.367	11	08/31/2025 13:56:57.1414
1.44832	200.329	11	08/31/2025 13:56:58.9414
1.44833	200.342	11	08/31/2025 13:57:00.7414
1.44835	200.176	11	08/31/2025 13:57:02.5414
1.44839	200.297	11	08/31/2025 13:57:04.3414
1.44847	200.386	11	08/31/2025 13:57:06.1414
1.44838	200.284	11	08/31/2025 13:57:07.9414
1.44839	200.303	11	08/31/2025 13:57:09.7414
1.44839	200.265	11	08/31/2025 13:57:11.5414
1.44837	200.291	11	08/31/2025 13:57:13.3414
1.44842	200.265	11	08/31/2025 13:57:15.1414
1.44845	200.253	11	08/31/2025 13:57:16.9414
1.44846	200.278	11	08/31/2025 13:57:18.7414
1.44845	200.265	11	08/31/2025 13:57:20.5414
1.44857	200.221	11	08/31/2025 13:57:22.3414
1.44856	200.227	11	08/31/2025 13:57:24.1414
1.44865	200.291	11	08/31/2025 13:57:25.9414
1.44872	200.259	11	08/31/2025 13:57:27.7414
1.44877	200.272	11	08/31/2025 13:57:29.5414
1.44879	200.291	11	08/31/2025 13:57:31.3414
1.44882	200.303	11	08/31/2025 13:57:33.1414
1.44883	200.278	11	08/31/2025 13:57:34.9414
1.44889	200.297	11	08/31/2025 13:57:36.7414
1.44892	200.316	11	08/31/2025 13:57:38.5414
1.449	200.405	11	08/31/2025 13:57:40.3414
1.44907	200.386	11	08/31/2025 13:57:42.1414
1.44916	200.284	11	08/31/2025 13:57:43.9414
1.44925	200.291	11	08/31/2025 13:57:45.7414
1.44927	200.265	11	08/31/2025 13:57:47.5414
1.44931	200.329	11	08/31/2025 13:57:49.3414
1.44929	200.284	11	08/31/2025 13:57:51.1414
1.44924	200.348	11	08/31/2025 13:57:52.9414
1.44921	200.354	11	08/31/2025 13:57:54.7414
1.44914	200.38	11	08/31/2025 13:57:56.5414
1.44907	200.31	11	08/31/2025 13:57:58.3414
1.44906	200.361	11	08/31/2025 13:58:00.1414
1.44905	200.272	11	08/31/2025 13:58:01.9414
1.44907	200.329	11	08/31/2025 13:58:03.7414
1.44909	200.367	11	08/31/2025 13:58:05.5414
1.44905	200.348	11	08/31/2025 13:58:07.3414
1.44912	200.373	11	08/31/2025 13:58:09.1414
1.44909	200.303	11	08/31/2025 13:58:10.9414
1.44916	200.361	11	08/31/2025 13:58:12.7414
1.44916	200.316	11	08/31/2025 13:58:14.5414
1.4492	200.329	11	08/31/2025 13:58:16.3414
1.44926	200.303	11	08/31/2025 13:58:18.1414
1.44921	200.329	11	08/31/2025 13:58:19.9414
1.44917	200.259	11	08/31/2025 13:58:21.7414
1.44916	200.342	11	08/31/2025 13:58:23.5414
1.44916	200.246	11	08/31/2025 13:58:25.3414
1.45817	300.453	12	08/31/2025 13:58:27.0416
1.45836	300.478	12	08/31/2025 13:58:28.8416
1.45844	300.427	12	08/31/2025 13:58:30.6416
1.45852	300.389	12	08/31/2025 13:58:32.4416
1.45857	300.402	12	08/31/2025 13:58:34.2416
1.45861	300.421	12	08/31/2025 13:58:36.0416
1.4587	300.357	12	08/31/2025 13:58:37.8416
1.45875	300.364	12	08/31/2025 13:58:39.6416
1.45879	300.402	12	08/31/2025 13:58:41.4416
1.45885	300.434	12	08/31/2025 13:58:43.2416
1.45887	300.427	12	08/31/2025 13:58:45.0416
1.45891	300.376	12	08/31/2025 13:58:46.8416
1.45893	300.472	12	08/31/2025 13:58:48.6416
1.45896	300.389	12	08/31/2025 13:58:50.4416
1.459	300.37	12	08/31/2025 13:58:52.2416
1.45903	300.395	12	08/31/2025 13:58:54.0416
1.45906	300.364	12	08/31/2025 13:58:55.8416
1.45907	300.37	12	08/31/2025 13:58:57.6416
1.45911	300.395	12	08/31/2025 13:58:59.4416
1.45913	300.44	12	08/31/2025 13:59:01.2416
1.45913	300.434	12	08/31/2025 13:59:03.0416
1.45917	300.414	12	08/31/2025 13:59:04.8416
1.45916	300.478	12	08/31/2025 13:59:06.6416
1.45921	300.484	12	08/31/2025 13:59:08.4416
1.45917	300.402	12	08/31/2025 13:59:10.2416
1.45925	300.459	12	08/31/2025 13:59:12.0416
1.45928	300.44	12	08/31/2025 13:59:13.8416
1.45928	300.497	12	08/31/2025 13:59:15.6416
1.45933	300.523	12	08/31/2025 13:59:17.4416
1.45937	300.434	12	08/31/2025 13:59:19.2416
1.45937	300.44	12	08/31/2025 13:59:21.0416
1.45941	300.414	12	08/31/2025 13:59:22.8416
1.4594	300.453	12	08/31/2025 13:59:24.6416
1.45944	300.434	12	08/31/2025 13:59:26.4416
1.45948	300.434	12	08/31/2025 13:59:28.2416
1.4595	300.446	12	08/31/2025 13:59:30.0416
1.45949	300.453	12	08/31/2025 13:59:31.8416
1.45954	300.491	12	08/31/2025 13:59:33.6416
1.45957	300.465	12	08/31/2025 13:59:35.4416
1.45958	300.453	12	08/31/2025 13:59:37.2416
1.45957	300.434	12	08/31/2025 13:59:39.0416
1.45961	300.453	12	08/31/2025 13:59:40.8416
1.45965	300.389	12	08/31/2025 13:59:42.6416
1.45966	300.446	12	08/31/2025 13:59:44.4416
1.45969	300.446	12	08/31/2025 13:59:46.2416
1.4597	300.427	12	08/31/2025 13:59:48.0416
1.4597	300.395	12	08/31/2025 13:59:49.8416
1.45971	300.383	12	08/31/2025 13:59:51.6416
1.45977	300.446	12	08/31/2025 13:59:53.4416
1.45979	300.478	12	08/31/2025 13:59:55.2416
1.45979	300.427	12	08/31/2025 13:59:57.0416
1.45983	300.338	12	08/31/2025 13:59:58.8416
1.45985	300.427	12	08/31/2025 14:00:00.6416
1.45986	300.421	12	08/31/2025 14:00:02.4416
1.45987	300.434	12	08/31/2025 14:00:04.2416
1.45991	300.434	12	08/31/2025 14:00:06.0416
1.45993	300.453	12	08/31/2025 14:00:07.8416
1.45992	300.383	12	08/31/2025 14:00:09.6416
1.45993	300.402	12	08/31/2025 14:00:11.4416
1.45996	300.376	12	08/31/2025 14:00:13.2416
1.46	300.338	12	08/31/2025 14:00:15.0416
1.46	300.414	12	08/31/2025 14:00:16.8416
1.46003	300.478	12	08/31/2025 14:00:18.6416
1.46005	300.389	12	08/31/2025 14:00:20.4416
1.46005	300.395	12	08/31/2025 14:00:22.2416
1.46008	300.484	12	08/31/2025 14:00:24.0416
1.46005	300.389	12	08/31/2025 14:00:25.8416
1.46745	400.557	13	08/31/2025 14:00:27.5418
1.46754	400.436	13	08/31/2025 14:00:29.3418
1.46755	400.532	13	08/31/2025 14:00:31.1418
1.4676	400.506	13	08/31/2025 14:00:32.9418
1.46764	400.544	13	08/31/2025 14:00:34.7418
1.46764	400.525	13	08/31/2025 14:00:36.5418
1.46766	400.595	13	08/31/2025 14:00:38.3418
1.46771	400.513	13	08/31/2025 14:00:40.1418
1.46771	400.564	13	08/31/2025 14:00:41.9418
1.46772	400.532	13	08/31/2025 14:00:43.7418
1.46774	400.544	13	08/31/2025 14:00:45.5418
1.46777	400.481	13	08/31/2025 14:00:47.3418
1.46781	400.564	13	08/31/2025 14:00:49.1418
1.46783	400.519	13	08/31/2025 14:00:50.9418
1.46789	400.525	13	08/31/2025 14:00:52.7418
1.46791	400.525	13	08/31/2025 14:00:54.5418
1.46788	400.506	13	08/31/2025 14:00:56.3418
1.46791	400.583	13	08/31/2025 14:00:58.1418
1.46795	400.525	13	08/31/2025 14:00:59.9418
1.46799	400.551	13	08/31/2025 14:01:01.7418
1.46804	400.544	13	08/31/2025 14:01:03.5418
1.46804	400.564	13	08/31/2025 14:01:05.3418
1.46806	400.557	13	08/31/2025 14:01:07.1418
1.46807	400.532	13	08/31/2025 14:01:08.9418
1.46811	400.538	13	08/31/2025 14:01:10.7418
1.46813	400.551	13	08/31/2025 14:01:12.5418
1.46815	400.551	13	08/31/2025 14:01:14.3418
1.46818	400.589	13	08/31/2025 14:01:16.1418
1.4682	400.615	13	08/31/2025 14:01:17.9418
1.46823	400.608	13	08/31/2025 14:01:19.7418
1.46825	400.519	13	08/31/2025 14:01:21.5418
1.46827	400.564	13	08/31/2025 14:01:23.3418
1.46828	400.481	13	08/31/2025 14:01:25.1418
1.46832	400.487	13	08/31/2025 14:01:26.9418
1.46833	400.513	13	08/31/2025 14:01:28.7418
1.46836	400.506	13	08/31/2025 14:01:30.5417
1.46834	400.551	13	08/31/2025 14:01:32.3418
1.46841	400.474	13	08/31/2025 14:01:34.1417
1.46844	400.449	13	08/31/2025 14:01:35.9418
1.46845	400.481	13	08/31/2025 14:01:37.7417
1.46848	400.506	13	08/31/2025 14:01:39.5417
1.46851	400.506	13	08/31/2025 14:01:41.3417
1.46853	400.525	13	08/31/2025 14:01:43.1417
1.46856	400.557	13	08/31/2025 14:01:44.9417
1.46852	400.481	13	08/31/2025 14:01:46.7417
1.46854	400.525	13	08/31/2025 14:01:48.5417
1.46861	400.481	13	08/31/2025 14:01:50.3417
1.46863	400.487	13	08/31/2025 14:01:52.1417
1.46865	400.494	13	08/31/2025 14:01:53.9417
1.46867	400.583	13	08/31/2025 14:01:55.7417
1.4687	400.494	13	08/31/2025 14:01:57.5417
1.46871	400.455	13	08/31/2025 14:01:59.3417
1.46874	400.532	13	08/31/2025 14:02:01.1417
1.46872	400.474	13	08/31/2025 14:02:02.9417
1.46874	400.424	13	08/31/2025 14:02:04.7417
1.4687	400.43	13	08/31/2025 14:02:06.5417
1.46867	400.417	13	08/31/2025 14:02:08.3417
1.46868	400.576	13	08/31/2025 14:02:10.1417
1.46873	400.519	13	08/31/2025 14:02:11.9417
1.46876	400.5	13	08/31/2025 14:02:13.7417
1.4688	400.532	13	08/31/2025 14:02:15.5417
1.46883	400.468	13	08/31/2025 14:02:17.3417
1.46885	400.474	13	08/31/2025 14:02:19.1417
1.46885	400.487	13	08/31/2025 14:02:20.9417
1.46889	400.506	13	08/31/2025 14:02:22.7417
1.4689	400.468	13	08/31/2025 14:02:24.5417
1.46895	400.525	13	08/31/2025 14:02:26.3417
1.46897	400.602	13	08/31/2025 14:02:26.3419