File: example_data/Example_MEA_01/CVs/CVpost_C01.txt
Ewe/V	<I>/mA	cycle number
1.3407	-1.78333	1	0
1.3603	16.8595	1	0
1.38025	19.8795	1	0
1.40001	29.231	1	0
1.3816	-12.1451	1	0
1.36161	-15.825	1	0
1.34164	-17.0837	1	0
1.32163	-17.5343	1	0
1.3016	-18.2453	1	0
1.28163	-18.1965	1	0
1.26166	-17.8868	1	0
1.24165	-17.4443	1	0
1.22159	-17.0256	1	0
1.20163	-16.7446	1	0
1.1816	-16.387	1	0
1.16166	-16.5592	1	0
1.14164	-16.8942	1	0
1.12165	-17.154	1	0
1.10163	-17.4172	1	0
1.08162	-18.0178	1	0
1.06164	-18.8323	1	0
1.04166	-19.55	1	0
1.02169	-20.681	1	0
1.00169	-22.0408	1	0
0.981671	-24.02	1	0
0.961681	-26.0196	1	0
0.941631	-28.5335	1	0
0.921661	-30.9717	1	0
0.901669	-33.8611	1	0
0.881643	-37.1086	1	0
0.861668	-40.1703	1	0
0.841713	-43.934	1	0
0.821714	-48.1494	1	0
0.801655	-53.3256	1	0
0.781653	-60.419	1	0
0.761655	-71.4571	1	0
0.741661	-91.5298	1	0
0.721697	-131.029	1	0
0.701693	-211.393	1	0
0.681692	-338.434	1	0
0.661703	-430.15	1	0
0.641665	-329.929	1	0
0.621654	-132.453	1	0
0.601726	-56.1103	1	0
0.581676	-34.9987	1	0
0.561681	-26.6004	1	0
0.541694	-22.3421	1	0
0.521694	-19.8026	1	0
0.501744	-18.2774	1	0
0.481657	-17.1232	1	0
0.461698	-15.9577	1	0
0.441741	-15.3722	1	0
0.42169	-15.0695	1	0
0.401677	-14.6828	1	0
0.381728	-14.9545	1	0
0.361698	-15.2156	1	0
0.341753	-16.4609	1	0
0.321673	-17.9593	1	0
0.301679	-20.6624	1	0
0.281715	-24.0408	1	0
0.26169	-28.9644	1	0
0.241675	-33.0378	1	0
0.221679	-33.8004	1	0
0.201685	-33.767	1	0
0.181745	-34.8691	1	0
0.161684	-39.2514	1	0
0.141729	-48.5819	1	0
0.121706	-55.343	1	0
0.10174	-61.1388	1	0
0.115989	34.0463	1	0
0.135973	32.994	1	0
0.156028	30.5871	1	0
0.175983	28.7095	1	0
0.196018	27.61	1	0
0.215958	27.6562	1	0
0.23599	29.25	1	0
0.25598	28.3141	1	0
0.275949	23.0873	1	0
0.296021	18.5119	1	0
0.315948	15.3238	1	0
0.335998	13.1779	1	0
0.355959	11.1551	1	0
0.375928	10.5636	1	0
0.395947	10.4489	1	0
0.416011	10.223	1	0
0.436029	10.3397	1	0
0.456002	10.7141	1	0
0.47596	11.1306	1	0
0.496017	11.8619	1	0
0.51599	12.3271	1	0
0.53599	13.3424	1	0
0.555951	13.9617	1	0
0.575987	14.9665	1	0
0.596005	15.7149	1	0
0.615962	16.6528	1	0
0.635962	18.277	1	0
0.655964	19.1297	1	0
0.675941	20.6077	1	0
0.695934	22.1734	1	0
0.715973	25.0189	1	0
0.735947	29.5739	1	0
0.755937	35.3936	1	0
0.775933	42.2147	1	0
0.795935	46.3243	1	0
0.815918	49.8655	1	0
0.835999	50.5817	1	0
0.855965	48.6832	1	0
0.875946	46.3746	1	0
0.895976	45.5148	1	0
0.915962	44.523	1	0
0.935946	44.6074	1	0
0.955979	44.7218	1	0
0.975987	44.7651	1	0
0.995934	44.4299	1	0
1.01594	44.3457	1	0
1.03595	45.0233	1	0
1.05596	45.9595	1	0
1.07595	46.5271	1	0
1.09593	47.2953	1	0
1.11591	48.9197	1	0
1.13594	50.5639	1	0
1.1559	50.8749	1	0
1.17593	51.8153	1	0
1.19592	52.5104	1	0
1.21593	52.63	1	0
1.2359	53.2265	1	0
1.25592	53.5408	1	0
1.27589	54.0608	1	0
1.29592	54.2022	1	0
1.31593	53.9231	1	0
1.33587	54.1997	1	0
1.35439	55.499	2	0
1.37441	59.7867	2	0
1.39435	74.8897	2	0
1.38762	19.7541	2	0
1.36762	-1.48074	2	0
1.34762	-8.83254	2	0
1.32765	-11.8091	2	0
1.30764	-13.4286	2	0
1.28765	-13.8293	2	0
1.26768	-14.373	2	0
1.24765	-14.6419	2	0
1.22761	-14.8424	2	0
1.20767	-14.5354	2	0
1.18762	-14.9833	2	0
1.16762	-15.1678	2	0
1.1476	-15.9672	2	0
1.12763	-16.5176	2	0
1.10767	-16.7139	2	0
1.08765	-17.1482	2	0
1.06764	-18.0147	2	0
1.04766	-18.519	2	0
1.0277	-19.6737	2	0
1.00771	-20.9269	2	0
0.987667	-23.4006	2	0
0.967688	-25.2423	2	0
0.947716	-28.1322	2	0
0.927699	-32.3598	2	0
0.907712	-37.9895	2	0
0.887642	-44.9785	2	0
0.867723	-55.2426	2	0
0.847701	-70.0688	2	0
0.827728	-91.4084	2	0
0.807683	-117.658	2	0
0.787695	-142.836	2	0
0.76766	-152.103	2	0
0.747692	-137.89	2	0
0.727654	-110.523	2	0
0.707682	-83.063	2	0
0.687694	-62.4192	2	0
0.667666	-47.8895	2	0
0.647715	-37.3244	2	0
0.627675	-30.3436	2	0
0.607664	-25.7742	2	0
0.587741	-22.1793	2	0
0.567703	-19.178	2	0
0.547698	-17.2519	2	0
0.527707	-15.6739	2	0
0.507733	-14.9258	2	0
0.487771	-13.8355	2	0
0.467723	-13.259	2	0
0.44775	-12.5671	2	0
0.427703	-12.4206	2	0
0.407742	-12.0249	2	0
0.387713	-12.0047	2	0
0.367686	-12.4363	2	0
0.347714	-13.4145	2	0
0.32771	-14.3943	2	0
0.307703	-16.7837	2	0
0.287676	-19.5623	2	0
0.267726	-24.3457	2	0
0.247716	-28.786	2	0
0.227705	-31.2743	2	0
0.20769	-30.6228	2	0
0.187741	-30.6964	2	0
0.167677	-33.398	2	0
0.14772	-41.8412	2	0
0.127734	-49.5716	2	0
0.107721	-55.9588	2	0
0.109961	34.9851	2	0
0.129978	35.0799	2	0
0.150008	32.4547	2	0
0.169989	29.8042	2	0
0.190007	27.5513	2	0
0.209966	27.7009	2	0
0.230001	29.537	2	0
0.24999	29.4343	2	0
0.269976	25.3119	2	0
0.289982	19.9656	2	0
0.31001	16.5334	2	0
0.329957	14.2409	2	0
0.349967	12.1977	2	0
0.369963	11.2806	2	0
0.389971	10.8374	2	0
0.410008	10.4798	2	0
0.429974	10.6657	2	0
0.44997	10.8547	2	0
0.469954	11.3286	2	0
0.490017	11.6324	2	0
0.509972	12.3744	2	0
0.529953	12.9784	2	0
0.549992	13.7303	2	0
0.569945	14.5478	2	0
0.589967	15.5517	2	0
0.609972	16.371	2	0
0.629964	17.6694	2	0
0.649975	11.35	2	0
0.669965	20.0542	2	0
0.689961	21.7147	2	0
0.709945	24.1003	2	0
0.729947	27.5041	2	0
0.749924	33.4158	2	0
0.769955	40.1224	2	0
0.789908	45.5265	2	0
0.809934	48.1796	2	0
0.829933	50.7365	2	0
0.849979	49.0201	2	0
0.870012	47.066	2	0
0.889997	45.1449	2	0
0.910004	44.1995	2	0
0.929937	44.2177	2	0
0.949958	44.3081	2	0
0.969939	44.4806	2	0
0.989965	44.252	2	0
1.00991	43.9989	2	0
1.02995	44.3687	2	0
1.04996	44.8774	2	0
1.06993	45.8844	2	0
1.08989	46.6806	2	0
1.10992	48.1173	2	0
1.12992	49.1871	2	0
1.14991	49.9198	2	0
1.16987	50.6816	2	0
1.18987	51.4111	2	0
1.2099	51.9795	2	0
1.22991	52.8618	2	0
1.24992	52.539	2	0
1.26994	53.0061	2	0
1.28994	52.6576	2	0
1.30988	52.9857	2	0
1.32991	53.1328	2	0
1.3484	54.0715	3	0
1.36839	57.1413	3	0
1.3884	68.3261	3	0
1.3936	34.3738	3	0
1.37362	3.05785	3	0
1.35359	-7.08993	3	0
1.33362	-10.7731	3	0
1.31362	-12.5082	3	0
1.29361	-12.7459	3	0
1.27365	-13.5959	3	0
1.25363	-13.9795	3	0
1.23364	-13.7634	3	0
1.21363	-14.2434	3	0
1.19364	-13.7801	3	0
1.17364	-14.7096	3	0
1.15365	-15.1761	3	0
1.13363	-15.7197	3	0
1.11366	-15.9948	3	0
1.09364	-16.6556	3	0
1.07367	-17.1253	3	0
1.05366	-17.7257	3	0
1.0337	-18.7308	3	0
1.01367	-20.2034	3	0
0.993664	-21.8755	3	0
0.973667	-24.3053	3	0
0.953665	-26.5547	3	0
0.933642	-31.0092	3	0
0.913686	-35.2196	3	0
0.893726	-41.7363	3	0
0.873717	-50.3492	3	0
0.853686	-63.4987	3	0
0.833671	-81.7584	3	0
0.813666	-106.821	3	0
0.793674	-133.554	3	0
0.773677	-150.814	3	0
0.75367	-144.466	3	0
0.733662	-119.026	3	0
0.713712	-90.2863	3	0
0.693704	-67.8884	3	0
0.673691	-51.1654	3	0
0.653739	-39.5543	3	0
0.633653	-31.1753	3	0
0.613715	-25.815	3	0
0.593655	-22.4783	3	0
0.573737	-18.6959	3	0
0.553706	-16.8539	3	0
0.533718	-15.6976	3	0
0.5137	-14.3072	3	0
0.493707	-13.6857	3	0
0.473701	-12.7454	3	0
0.453721	-12.3452	3	0
0.433697	-11.812	3	0
0.413721	-11.4315	3	0
0.393708	-11.3445	3	0
0.373733	-11.9701	3	0
0.353692	-12.215	3	0
0.333701	-13.524	3	0
0.313692	-15.1296	3	0
0.293663	-17.8732	3	0
0.273714	-21.9249	3	0
0.253765	-26.8417	3	0
0.23375	-30.1873	3	0
0.213716	-30.6319	3	0
0.193704	-30.0875	3	0
0.173732	-31.8037	3	0
0.153694	-37.3021	3	0
0.133724	-46.9503	3	0
0.113686	-52.985	3	0
0.103969	25.9532	3	0
0.123998	35.3907	3	0
0.14402	32.8126	3	0
0.163955	29.8621	3	0
0.183948	27.871	3	0
0.20404	28.0349	3	0
0.223984	28.3129	3	0
0.24402	29.5992	3	0
0.263975	26.6097	3	0
0.283949	21.0563	3	0
0.303976	17.6227	3	0
0.323954	14.164	3	0
0.343938	13.0131	3	0
0.363958	11.4658	3	0
0.383966	10.9164	3	0
0.403956	10.8058	3	0
0.424049	10.5063	3	0
0.443975	10.7359	3	0
0.463998	11.0944	3	0
0.483991	11.7051	3	0
0.503957	12.1346	3	0
0.523929	12.779	3	0
0.543925	13.6161	3	0
0.563972	14.0487	3	0
0.583981	15.1662	3	0
0.603997	16.2329	3	0
0.623959	17.1901	3	0
0.643971	18.0774	3	0
0.663948	19.4363	3	0
0.683935	20.8962	3	0
0.703994	23.0452	3	0
0.723966	25.6784	3	0
0.743942	30.7325	3	0
0.763956	37.5304	3	0
0.78392	43.8326	3	0
0.803935	46.9093	3	0
0.823968	50.0321	3	0
0.843934	49.3143	3	0
0.863971	46.7154	3	0
0.88394	45.0999	3	0
0.903981	44.3893	3	0
0.924	43.9085	3	0
0.943979	44.2136	3	0
0.963946	43.7412	3	0
0.983941	43.8131	3	0
1.00398	43.4622	3	0
1.02395	43.5582	3	0
1.04392	44.1159	3	0
1.06393	45.1776	3	0
1.08389	45.6686	3	0
1.10395	47.1513	3	0
1.1239	48.0117	3	0
1.1439	48.6376	3	0
1.16391	49.6075	3	0
1.18386	50.6267	3	0
1.20391	51.1807	3	0
1.22388	52.124	3	0
1.2439	51.7082	3	0
1.26393	52.2878	3	0
1.28394	52.1094	3	0
1.30393	52.5571	3	0
1.32387	52.4471	3	0
1.34237	53.1093	4	0
1.36239	54.9121	4	0
1.38237	61.4394	4	0
1.39966	61.8631	4	0
1.3796	8.29099	4	0
1.35965	-4.79977	4	0
1.33959	-9.42175	4	0
1.31963	-11.6181	4	0
1.29962	-12.5415	4	0
1.27962	-13.0185	4	0
1.25963	-13.481	4	0
1.23965	-13.5584	4	0
1.21964	-13.694	4	0
1.19963	-13.9875	4	0
1.1796	-14.5948	4	0
1.15968	-14.5864	4	0
1.13962	-15.1967	4	0
1.11966	-15.7364	4	0
1.09966	-16.2123	4	0
1.07962	-16.5288	4	0
1.05968	-17.2389	4	0
1.03967	-18.4721	4	0
1.01967	-19.5541	4	0
0.999686	-20.8501	4	0
0.97967	-23.1352	4	0
0.959697	-25.4892	4	0
0.939662	-29.2984	4	0
0.9197	-33.3474	4	0
0.899724	-39.7048	4	0
0.879714	-46.7646	4	0
0.85968	-59.2851	4	0
0.839699	-75.9018	4	0
0.819726	-99.2053	4	0
0.799657	-126.42	4	0
0.779622	-147.557	4	0
0.759639	-147.676	4	0
0.739671	-125.703	4	0
0.719682	-96.4212	4	0
0.699691	-72.4958	4	0
0.679688	-54.2087	4	0
0.659708	-41.4562	4	0
0.639716	-32.3916	4	0
0.619666	-27.0841	4	0
0.599691	-22.9274	4	0
0.579688	-19.4783	4	0
0.559704	-17.2654	4	0
0.539693	-15.7602	4	0
0.51968	-14.5038	4	0
0.499697	-13.1006	4	0
0.479737	-13.0256	4	0
0.459705	-12.4941	4	0
0.439708	-11.9009	4	0
0.41972	-11.6659	4	0
0.399719	-11.1391	4	0
0.379686	-11.8102	4	0
0.359715	-12.1052	4	0
0.339697	-13.5436	4	0
0.319677	-14.5529	4	0
0.299686	-17.5803	4	0
0.279707	-20.438	4	0
0.25972	-25.3921	4	0
0.239711	-30.1302	4	0
0.219698	-31.2918	4	0
0.199744	-29.8074	4	0
0.179753	-30.7883	4	0
0.159698	-34.6559	4	0
0.139699	-45.6314	4	0
0.119704	-50.7185	4	0
0.100447	-57.1772	4	0
0.117991	36.174	4	0
0.137976	33.1452	4	0
0.157972	30.1237	4	0
0.177992	28.468	4	0
0.197982	27.254	4	0
0.217997	27.5713	4	0
0.237982	28.913	4	0
0.257984	27.3881	4	0
0.277969	22.1495	4	0
0.297981	17.7287	4	0
0.317939	14.541	4	0
0.337964	12.778	4	0
0.357975	11.8099	4	0
0.377956	10.5301	4	0
0.397924	10.383	4	0
0.418005	10.0716	4	0
0.438005	10.1842	4	0
0.457973	10.2605	4	0
0.477969	10.8817	4	0
0.497977	11.4694	4	0
0.517999	12.3766	4	0
0.537996	12.8283	4	0
0.557972	13.6176	4	0
0.577964	14.0291	4	0
0.597963	15.5393	4	0
0.617965	16.063	4	0
0.637964	17.7348	4	0
0.657963	18.567	4	0
0.677923	20.3045	4	0
0.697931	20.91	4	0
0.717963	24.1781	4	0
0.737954	28.2954	4	0
0.757988	34.6415	4	0
0.777941	41.4706	4	0
0.797942	45.8328	4	0
0.817988	50.0425	4	0
0.837902	49.0234	4	0
0.857965	47.8663	4	0
0.87791	45.1534	4	0
0.897991	43.1465	4	0
0.917954	43.6831	4	0
0.937968	43.947	4	0
0.957989	43.7094	4	0
0.977922	43.4614	4	0
0.997923	43.5529	4	0
1.01793	43.3086	4	0
1.03797	42.8009	4	0
1.05795	44.2647	4	0
1.07796	45.3846	4	0
1.09789	46.1381	4	0
1.11792	46.7511	4	0
1.13789	48.2613	4	0
1.15789	49.3757	4	0
1.17787	50.2809	4	0
1.19787	50.7664	4	0
1.21789	51.1013	4	0
1.23791	51.3192	4	0
1.25791	51.4366	4	0
1.27788	51.6357	4	0
1.29787	51.8848	4	0
1.3179	52.0558	4	0
1.33789	52.1707	4	0
1.35638	53.0125	5	0
1.37638	58.0005	5	0
1.39638	73.1612	5	0
1.3856	15.0543	5	0
1.36562	-2.61746	5	0
1.34561	-8.16044	5	0
1.3256	-10.9454	5	0
1.30563	-12.1955	5	0
1.28562	-12.9451	5	0
1.26566	-12.8463	5	0
1.24564	-13.225	5	0
1.22562	-13.7472	5	0
1.20562	-13.6079	5	0
1.18562	-14.6614	5	0
1.16565	-14.83	5	0
1.1456	-14.7594	5	0
1.12562	-15.2558	5	0
1.10563	-15.7982	5	0
1.08571	-16.1323	5	0
1.06566	-16.6645	5	0
1.04569	-17.865	5	0
1.0257	-18.585	5	0
1.00566	-20.2148	5	0
0.985637	-22.1128	5	0
0.965684	-24.7263	5	0
0.945657	-27.7263	5	0
0.925669	-31.7385	5	0
0.905676	-38.0545	5	0
0.885695	-44.6455	5	0
0.865696	-55.3436	5	0
0.845723	-70.6855	5	0
0.825722	-91.7926	5	0
0.805674	-118.723	5	0
0.785609	-143.251	5	0
0.765629	-149.482	5	0
0.745714	-132.926	5	0
0.72567	-104.105	5	0
0.70565	-77.8344	5	0
0.685665	-58.1684	5	0
0.665714	-44.2973	5	0
0.645673	-34.3275	5	0
0.625678	-27.6279	5	0
0.605717	-23.1246	5	0
0.585683	-20.1603	5	0
0.565683	-17.9229	5	0
0.545711	-16.1281	5	0
0.52569	-12.6751	5	0
0.505723	-13.8998	5	0
0.485736	-14.0386	5	0
0.46571	-13.4779	5	0
0.445727	-13.2915	5	0
0.425733	-12.4066	5	0
0.405701	-12.2821	5	0
0.38568	-12.3594	5	0
0.365652	-12.4106	5	0
0.34572	-13.4382	5	0
0.325679	-15.4576	5	0
0.305679	-17.5123	5	0
0.285742	-20.9464	5	0
0.265688	-25.9265	5	0
0.245721	-30.3225	5	0
0.225689	-30.9683	5	0
0.205729	-30.0063	5	0
0.185726	-30.8607	5	0
0.165745	-34.9517	5	0
0.145682	-44.9569	5	0
0.125759	-52.5046	5	0
0.10573	-57.7421	5	0
0.112005	37.1529	5	0
0.132016	35.316	5	0
0.151984	32.2363	5	0
0.171924	29.8693	5	0
0.191987	27.7298	5	0
0.211975	27.0713	5	0
0.232	27.6095	5	0
0.251989	29.6261	5	0
0.27196	26.6996	5	0
0.291966	19.0455	5	0
0.311957	15.6948	5	0
0.332012	13.6113	5	0
0.352008	12.0212	5	0
0.371972	10.8876	5	0
0.391956	10.65	5	0
0.41198	10.1139	5	0
0.431968	10.1519	5	0
0.452	10.1915	5	0
0.471923	10.8576	5	0
0.49197	10.8804	5	0
0.51195	10.9397	5	0
0.531928	12.278	5	0
0.551967	13.4242	5	0
0.571956	13.7824	5	0
0.592016	14.7844	5	0
0.611951	15.2316	5	0
0.631939	16.5182	5	0
0.651967	17.3699	5	0
0.671948	19.6628	5	0
0.691984	20.3773	5	0
0.711946	21.7	5	0
0.731934	24.989	5	0
0.751981	30.9017	5	0
0.771952	37.751	5	0
0.79193	43.3291	5	0
0.811891	47.541	5	0
0.831962	50.2313	5	0
0.85199	48.0295	5	0
0.871975	46.0373	5	0
0.891966	43.9718	5	0
0.911986	43.5777	5	0
0.931994	43.0979	5	0
0.951942	42.3293	5	0
0.971922	43.6472	5	0
0.991949	43.3915	5	0
1.01193	43.3158	5	0
1.03191	44.1953	5	0
1.05197	44.1299	5	0
1.07194	44.276	5	0
1.09191	44.3481	5	0
1.11194	46.6636	5	0
1.1319	47.1677	5	0
1.1519	49.0838	5	0
1.17188	49.8364	5	0
1.19189	50.9377	5	0
1.21188	51.0276	5	0
1.23191	52.1858	5	0
1.25193	51.277	5	0
1.27191	51.4525	5	0
1.29191	52.2067	5	0
1.31191	51.7559	5	0
1.33185	51.7922	5	0
1.35038	52.4319	6	0
1.3704	54.9473	6	0
1.39034	63.1579	6	0
1.39162	23.3415	6	0
1.37161	0.460154	6	0
1.35163	-7.83982	6	0
1.33161	-10.5883	6	0
1.31163	-11.7387	6	0
1.29163	-12.8489	6	0
1.27166	-12.0995	6	0
1.25164	-14.4338	6	0
1.23164	-13.2101	6	0
1.21163	-13.8862	6	0
1.19162	-13.9585	6	0
1.17163	-14.2457	6	0
1.15165	-14.5512	6	0
1.13164	-15.3677	6	0
1.11166	-15.2435	6	0
1.0916	-15.9309	6	0
1.07169	-16.7218	6	0
1.05168	-17.601	6	0
1.03168	-19.2172	6	0
1.01166	-20.0432	6	0
0.991652	-21.8323	6	0
0.971695	-24.7315	6	0
0.951698	-27.4026	6	0
0.93168	-31.2392	6	0
0.91169	-37.3983	6	0
0.891711	-45.2545	6	0
0.871673	-55.8476	6	0
0.851677	-71.4093	6	0
0.831703	-93.6748	6	0
0.811655	-120.815	6	0
0.791665	-143.933	6	0
0.771654	-146.895	6	0
0.751702	-127.513	6	0
0.73163	-98.9883	6	0
0.71166	-74.2401	6	0
0.691668	-56.1617	6	0
0.671691	-43.168	6	0
0.651686	-33.5642	6	0
0.631687	-26.9189	6	0
0.611676	-22.8438	6	0
0.591717	-19.7034	6	0
0.571706	-17.623	6	0
0.551713	-15.2602	6	0
0.5317	-14.4962	6	0
0.511727	-13.2635	6	0
0.491713	-12.769	6	0
0.471679	-12.0221	6	0
0.451695	-11.7425	6	0
0.431699	-11.486	6	0
0.411713	-11.4187	6	0
0.391736	-11.2944	6	0
0.37169	-11.8123	6	0
0.351705	-12.1539	6	0
0.331715	-14.2862	6	0
0.311737	-15.6831	6	0
0.29172	-18.79	6	0
0.271758	-23.3749	6	0
0.251707	-29.5752	6	0
0.231726	-30.44	6	0
0.211703	-29.5757	6	0
0.191675	-30.5454	6	0
0.171701	-32.5165	6	0
0.151726	-40.1597	6	0
0.131754	-48.9688	6	0
0.111727	-54.8073	6	0
0.105998	32.7346	6	0
0.125987	37.2177	6	0
0.145974	33.0981	6	0
0.165958	29.9929	6	0
0.18598	27.5912	6	0
0.206028	28.2291	6	0
0.226007	28.5784	6	0
0.246014	29.1536	6	0
0.265953	26.107	6	0
0.285976	22.3129	6	0
0.305972	17.6289	6	0
0.325947	14.1681	6	0
0.346018	12.8194	6	0
0.365959	11.4023	6	0
0.386012	10.6294	6	0
0.405997	10.664	6	0
0.426013	10.7349	6	0
0.445994	11.5283	6	0
0.465965	11.1741	6	0
0.48599	12.1149	6	0
0.505968	12.2929	6	0
0.525974	13.1374	6	0
0.545969	14.266	6	0
0.56601	14.3468	6	0
0.585976	15.1496	6	0
0.605944	15.8496	6	0
0.625957	17.1725	6	0
0.645942	18.2143	6	0
0.665951	19.2291	6	0
0.685929	20.528	6	0
0.705936	21.7552	6	0
0.725928	24.9199	6	0
0.745919	29.0427	6	0
0.765915	36.3444	6	0
0.785879	41.5756	6	0
0.805957	46.3097	6	0
0.825965	50.1714	6	0
0.845957	49.7518	6	0
0.865991	46.305	6	0
0.885987	44.5437	6	0
0.905966	42.7095	6	0
0.925909	38.448	6	0
0.945962	42.7424	6	0
0.965962	43.2696	6	0
0.985934	42.8109	6	0
1.00594	43.6381	6	0
1.02594	42.7495	6	0
1.04593	42.8004	6	0
1.06593	44.3068	6	0
1.08592	44.5289	6	0
1.10588	45.9389	6	0
1.12593	47.8678	6	0
1.14589	49.3311	6	0
1.16592	49.5829	6	0
1.18588	51.0118	6	0
1.20592	51.248	6	0
1.22592	52.02	6	0
1.24588	51.3012	6	0
1.2659	51.84	6	0
1.28594	51.7987	6	0
1.30597	51.334	6	0
1.32591	51.7433	6	0
1.34438	52.5383	7	0
1.36439	53.2574	7	0
1.3844	59.6143	7	0
1.39761	38.2228	7	0
1.37763	4.30136	7	0
1.35762	-5.67165	7	0
1.33763	-10.2789	7	0
1.31766	-11.1285	7	0
1.29755	-12.6778	7	0
1.27765	-12.6522	7	0
1.25766	-12.7437	7	0
1.23762	-13.4277	7	0
1.21763	-13.7186	7	0
1.19761	-14.5444	7	0
1.17767	-14.5956	7	0
1.15762	-13.7116	7	0
1.13763	-14.3323	7	0
1.11765	-15.3435	7	0
1.09764	-15.5039	7	0
1.07764	-16.49	7	0
1.05764	-16.8153	7	0
1.03766	-18.2783	7	0
1.01768	-19.7193	7	0
0.997678	-21.5407	7	0
0.977667	-23.9009	7	0
0.957682	-25.9849	7	0
0.937669	-30.2877	7	0
0.917709	-35.5347	7	0
0.89769	-41.9767	7	0
0.877668	-53.3756	7	0
0.857696	-66.0734	7	0
0.837709	-86.602	7	0
0.8177	-112.065	7	0
0.797665	-137.945	7	0
0.777636	-147.22	7	0
0.757649	-133.514	7	0
0.737641	-106.251	7	0
0.717717	-79.3876	7	0
0.697695	-60.046	7	0
0.677655	-45.6358	7	0
0.65769	-34.802	7	0
0.637681	-28.4789	7	0
0.617689	-24.172	7	0
0.59767	-20.7638	7	0
0.577667	-17.4387	7	0
0.557722	-16.6173	7	0
0.537704	-14.4756	7	0
0.517707	-13.769	7	0
0.497698	-12.5305	7	0
0.477685	-12.312	7	0
0.457712	-12.1021	7	0
0.437725	-11.773	7	0
0.417762	-10.809	7	0
0.397696	-11.8828	7	0
0.377669	-11.7827	7	0
0.357711	-12.1393	7	0
0.337697	-13.5472	7	0
0.317705	-15.1781	7	0
0.297718	-17.5603	7	0
0.277719	-22.1665	7	0
0.257727	-27.4511	7	0
0.237727	-29.2701	7	0
0.217714	-30.2606	7	0
0.19772	-29.8151	7	0
0.177742	-31.4156	7	0
0.157722	-37.3245	7	0
0.137735	-48.4203	7	0
0.117717	-52.684	7	0
0.100332	-57.6997	7	0
0.119977	36.1944	7	0
0.140015	33.4339	7	0
0.160003	31.6495	7	0
0.180004	28.2978	7	0
0.200006	27.3305	7	0
0.21996	27.6913	7	0
0.240036	29.2359	7	0
0.260013	28.2723	7	0
0.279998	23.9313	7	0
0.299965	18.3572	7	0
0.319993	14.8134	7	0
0.339941	12.8648	7	0
0.359998	11.4184	7	0
0.379927	11.0971	7	0
0.399994	9.70051	7	0
0.420015	9.68566	7	0
0.439974	10.4868	7	0
0.460012	10.1148	7	0
0.479988	10.9388	7	0
0.499988	11.819	7	0
0.519933	12.08	7	0
0.539991	12.895	7	0
0.560007	12.9632	7	0
0.579969	14.0662	7	0
0.599976	15.1184	7	0
0.61995	16.0551	7	0
0.640002	17.6312	7	0
0.659966	18.5865	7	0
0.679954	19.8008	7	0
0.699963	20.4484	7	0
0.719943	23.3249	7	0
0.739924	26.8077	7	0
0.759959	33.0758	7	0
0.779955	38.446	7	0
0.799941	44.7646	7	0
0.819983	46.759	7	0
0.839979	49.9531	7	0
0.859963	47.641	7	0
0.879975	45.5486	7	0
0.900002	44.316	7	0
0.91996	42.4661	7	0
0.939907	42.516	7	0
0.959966	43.5396	7	0
0.979905	42.4703	7	0
1	42.9005	7	0
1.0199	42.8791	7	0
1.03995	43.9111	7	0
1.05996	43.7253	7	0
1.07993	44.419	7	0
1.09993	46.3506	7	0
1.11994	47.0417	7	0
1.13989	47.8681	7	0
1.15988	48.9671	7	0
1.17991	49.7483	7	0
1.19988	51.3236	7	0
1.21992	49.9714	7	0
1.23988	51.147	7	0
1.25991	51.3481	7	0
1.27989	50.6235	7	0
1.2999	50.6811	7	0
1.31992	50.5444	7	0
1.33988	50.8448	7	0
1.35843	51.9146	8	0
1.37838	56.6727	8	0
1.39838	70.4652	8	0
1.38361	11.3539	8	0
1.36364	-3.55432	8	0
1.34362	-8.048	8	0
1.32359	-11.7537	8	0
1.30362	-12.0452	8	0
1.28363	-12.3639	8	0
1.26366	-12.6198	8	0
1.24361	-13.1638	8	0
1.22364	-12.9306	8	0
1.20361	-13.5257	8	0
1.18363	-13.5684	8	0
1.16361	-14.5194	8	0
1.14366	-14.6729	8	0
1.12367	-14.7782	8	0
1.10361	-15.6494	8	0
1.08365	-16.5578	8	0
1.06368	-16.4304	8	0
1.04361	-17.2095	8	0
1.02369	-18.8364	8	0
1.00371	-20.6377	8	0
0.983696	-22.5043	8	0
0.963688	-25.0549	8	0
0.943681	-28.8009	8	0
0.923658	-33.4835	8	0
0.903728	-39.6125	8	0
0.883707	-47.8784	8	0
0.863692	-60.4696	8	0
0.843723	-78.3498	8	0
0.823726	-102.243	8	0
0.803617	-129.774	8	0
0.783653	-146.432	8	0
0.76366	-140.935	8	0
0.743695	-114.558	8	0
0.723669	-87.063	8	0
0.703683	-65.1426	8	0
0.683675	-49.8915	8	0
0.663717	-37.665	8	0
0.643749	-30.2219	8	0
0.623672	-24.7391	8	0
0.60372	-22.0378	8	0
0.58366	-18.7519	8	0
0.563664	-16.8686	8	0
0.543706	-15.3003	8	0
0.52365	-14.4793	8	0
0.503741	-13.876	8	0
0.483705	-13.0732	8	0
0.463726	-12.1259	8	0
0.443698	-11.8197	8	0
0.42372	-11.1043	8	0
0.403695	-11.4291	8	0
0.383712	-11.5026	8	0
0.363684	-12.0678	8	0
0.343717	-13.3432	8	0
0.323703	-14.473	8	0
0.303756	-16.69	8	0
0.283741	-20.6878	8	0
0.263735	-25.2193	8	0
0.243736	-30.0073	8	0
0.223713	-29.6276	8	0
0.203737	-30.0371	8	0
0.1837	-29.1432	8	0
0.163734	-34.0739	8	0
0.143738	-44.0501	8	0
0.123713	-51.2777	8	0
0.103736	-55.471	8	0
0.113978	36.3216	8	0
0.134	34.5755	8	0
0.153954	31.917	8	0
0.173985	28.6412	8	0
0.19403	25.4734	8	0
0.213983	27.2439	8	0
0.233984	28.8199	8	0
0.253985	29.263	8	0
0.273957	24.2101	8	0
0.29399	19.5345	8	0
0.31396	15.5098	8	0
0.333991	11.7059	8	0
0.353965	10.906	8	0
0.373964	10.5553	8	0
0.393966	10.3685	8	0
0.414025	9.35381	8	0
0.433981	9.45088	8	0
0.454026	9.92673	8	0
0.473984	10.0998	8	0
0.494	10.7552	8	0
0.513971	11.0178	8	0
0.533939	12.432	8	0
0.553975	13.1216	8	0
0.573959	14.1644	8	0
0.593933	14.2935	8	0
0.613976	15.1125	8	0
0.633976	17.4414	8	0
0.654001	18.3579	8	0
0.673945	19.4971	8	0
0.69398	20.7861	8	0
0.713974	22.2678	8	0
0.733944	24.7628	8	0
0.753931	30.3783	8	0
0.773966	37.6612	8	0
0.793938	43.275	8	0
0.813941	47.5251	8	0
0.833981	49.9055	8	0
0.853989	47.3049	8	0
0.873984	44.9875	8	0
0.893967	43.6478	8	0
0.91397	42.6013	8	0
0.933969	44.2668	8	0
0.954029	42.4989	8	0
0.973942	43.4125	8	0
0.993911	42.5586	8	0
1.01396	42.6479	8	0
1.03396	41.9028	8	0
1.05398	42.8351	8	0
1.07391	43.7482	8	0
1.09393	44.5934	8	0
1.11393	46.1208	8	0
1.13391	47.139	8	0
1.15389	47.9176	8	0
1.1739	48.8431	8	0
1.19389	49.8214	8	0
1.21387	50.2992	8	0
1.23392	50.0598	8	0
1.2539	51.7897	8	0
1.27389	50.5796	8	0
1.29391	50.7581	8	0
1.31389	50.714	8	0
1.33391	51.4012	8	0
1.35238	52.086	9	0
1.37241	54.4426	9	0
1.39238	62.1443	9	0
1.38966	18.248	9	0
1.36962	-0.884485	9	0
1.34963	-7.50152	9	0
1.32964	-10.3116	9	0
1.30965	-10.9764	9	0
1.28968	-11.864	9	0
1.26967	-12.9265	9	0
1.24962	-12.1327	9	0
1.22966	-13.1563	9	0
1.20964	-13.2484	9	0
1.18964	-13.6522	9	0
1.16963	-13.6438	9	0
1.14964	-14.7852	9	0
1.12965	-15.2002	9	0
1.10967	-15.3052	9	0
1.08965	-15.7081	9	0
1.06965	-16.6118	9	0
1.04966	-17.3452	9	0
1.02966	-19.0415	9	0
1.00966	-19.2247	9	0
0.989641	-22.2395	9	0
0.969684	-24.5139	9	0
0.949726	-27.5197	9	0
0.929679	-31.9556	9	0
0.909725	-37.862	9	0
0.889702	-44.9117	9	0
0.86972	-56.7363	9	0
0.849709	-72.645	9	0
0.829734	-96.0197	9	0
0.809673	-122.39	9	0
0.789653	-143.735	9	0
0.769644	-142.767	9	0
0.749704	-122.088	9	0
0.729647	-92.1353	9	0
0.709652	-69.3437	9	0
0.689699	-52.5232	9	0
0.669699	-39.8634	9	0
0.649711	-31.4682	9	0
0.629649	-26.7678	9	0
0.609683	-22.3082	9	0
0.589733	-19.0372	9	0
0.569697	-17.1729	9	0
0.549684	-15.6566	9	0
0.52968	-14.551	9	0
0.509685	-13.3599	9	0
0.489757	-12.493	9	0
0.469715	-12.1944	9	0
0.449704	-12.0358	9	0
0.429705	-10.5628	9	0
0.409726	-11.2805	9	0
0.389711	-11.0698	9	0
0.369703	-11.6799	9	0
0.349723	-12.4325	9	0
0.329695	-14.1683	9	0
0.309708	-15.787	9	0
0.289691	-19.8816	9	0
0.269732	-23.2704	9	0
0.249683	-28.4128	9	0
0.229733	-29.5847	9	0
0.209697	-29.4847	9	0
0.189701	-28.8989	9	0
0.169722	-31.0077	9	0
0.149679	-40.6246	9	0
0.129734	-47.8934	9	0
0.109709	-54.4359	9	0
0.108009	35.4343	9	0
0.127984	36.5145	9	0
0.148036	32.6578	9	0
0.168002	30.0846	9	0
0.187964	27.4679	9	0
0.207963	26.7903	9	0
0.227963	27.8607	9	0
0.247983	28.6013	9	0
0.267962	27.0735	9	0
0.288015	21.1559	9	0
0.307956	16.7484	9	0
0.327961	13.7427	9	0
0.347976	12.3112	9	0
0.36797	11.4559	9	0
0.387962	9.93035	9	0
0.407989	10.1634	9	0
0.427965	9.76743	9	0
0.448017	9.63254	9	0
0.467993	10.2992	9	0
0.48801	10.7177	9	0
0.50798	11.0586	9	0
0.527983	12.0046	9	0
0.547971	12.6788	9	0
0.56796	14.5728	9	0
0.587962	14.6085	9	0
0.607966	15.6323	9	0
0.627954	16.3815	9	0
0.64794	16.9979	9	0
0.667945	18.586	9	0
0.687939	19.7656	9	0
0.707972	21.5654	9	0
0.72793	24.0747	9	0
0.747954	28.2607	9	0
0.767938	37.0318	9	0
0.78792	41.2091	9	0
0.807936	44.9896	9	0
0.827997	48.5007	9	0
0.847991	48.7426	9	0
0.867968	45.1596	9	0
0.887947	42.984	9	0
0.907966	42.453	9	0
0.927944	43.1293	9	0
0.947938	41.8767	9	0
0.967977	42.6218	9	0
0.987963	42.3249	9	0
1.00796	41.7547	9	0
1.02793	42.3949	9	0
1.04795	43.3171	9	0
1.06791	43.6017	9	0
1.08791	45.3628	9	0
1.10794	45.7197	9	0
1.1279	46.5505	9	0
1.1479	47.7326	9	0
1.1679	48.6486	9	0
1.18787	49.3157	9	0
1.20788	49.5188	9	0
1.22791	50.1284	9	0
1.2479	50.9697	9	0
1.26794	50.5216	9	0
1.28792	51.1322	9	0
1.30791	50.0483	9	0
1.32791	50.8821	9	0
1.34638	51.1732	10	0
1.36642	53.2118	10	0
1.38638	59.1025	10	0
1.3956	31.2399	10	0
1.37558	2.31494	10	0
1.3556	-6.91994	10	0
1.3356	-9.2588	10	0
1.31563	-11.391	10	0
1.29565	-12.0127	10	0
1.27562	-12.8388	10	0
1.25565	-12.619	10	0
1.23564	-12.6904	10	0
1.21561	-13.1053	10	0
1.1956	-13.1236	10	0
1.1756	-12.8798	10	0
1.15566	-13.9688	10	0
1.13564	-15.4865	10	0
1.11562	-15.0682	10	0
1.09567	-15.9615	10	0
1.07564	-16.1058	10	0
1.05568	-17.3415	10	0
1.03566	-18.3796	10	0
1.01567	-18.2917	10	0
0.995661	-20.8113	10	0
0.975692	-22.9502	10	0
0.955692	-26.1106	10	0
0.935673	-29.659	10	0
0.915708	-34.8247	10	0
0.895704	-41.5882	10	0
0.875694	-51.5355	10	0
0.855703	-66.1077	10	0
0.83573	-86.5664	10	0
0.815656	-112.098	10	0
0.795626	-136.378	10	0
0.775655	-145.19	10	0
0.755671	-128.779	10	0
0.735673	-100.681	10	0
0.715664	-75.6892	10	0
0.695668	-57.0421	10	0
0.675715	-43.4689	10	0
0.655756	-32.9817	10	0
0.635643	-27.9988	10	0
0.615734	-22.6503	10	0
0.595715	-20.1408	10	0
0.575731	-17.9705	10	0
0.555672	-15.7652	10	0
0.535682	-14.1287	10	0
0.515708	-13.3016	10	0
0.495741	-12.7319	10	0
0.475676	-12.2624	10	0
0.455739	-11.7203	10	0
0.43574	-10.944	10	0
0.415737	-10.9204	10	0
0.395712	-11.263	10	0
0.375701	-11.055	10	0
0.35569	-12.0384	10	0
0.335682	-13.0728	10	0
0.315693	-14.6616	10	0
0.295689	-17.1224	10	0
0.275688	-20.9105	10	0
0.255713	-26.7365	10	0
0.23571	-30.0269	10	0
0.215697	-29.3316	10	0
0.195745	-27.6525	10	0
0.175712	-31.0779	10	0
0.155747	-35.8106	10	0
0.13571	-44.0475	10	0
0.11571	-52.4644	10	0
0.101926	7.86712	10	0
0.122011	35.2707	10	0
0.141997	33.0254	10	0
0.161997	29.8485	10	0
0.182006	27.8058	10	0
0.202003	26.3272	10	0
0.221975	26.9155	10	0
0.241992	28.4848	10	0
0.261993	28.4481	10	0
0.281987	22.2806	10	0
0.302002	17.6045	10	0
0.321973	14.0327	10	0
0.341962	13.3233	10	0
0.361997	12.3726	10	0
0.381956	10.2169	10	0
0.401917	9.78609	10	0
0.421971	10.3104	10	0
0.441979	10.279	10	0
0.462002	9.6686	10	0
0.481962	10.4425	10	0
0.502001	11.7105	10	0
0.52194	12.6218	10	0
0.541993	12.9196	10	0
0.561962	13.4416	10	0
0.581941	13.9263	10	0
0.601981	14.5885	10	0
0.621954	16.6922	10	0
0.641985	16.6935	10	0
0.661964	18.3972	10	0
0.681948	20.0474	10	0
0.701996	21.2145	10	0
0.72195	23.0072	10	0
0.741983	26.8805	10	0
0.761917	33.2657	10	0
0.781979	40.0955	10	0
0.801955	45.1199	10	0
0.821981	48.5045	10	0
0.841968	49.4572	10	0
0.861971	46.8904	10	0
0.881971	43.9291	10	0
0.901988	43.1803	10	0
0.921983	42.4626	10	0
0.941945	42.3367	10	0
0.961983	42.0882	10	0
0.981915	42.2827	10	0
1.00198	42.3883	10	0
1.02191	41.2513	10	0
1.04192	42.1828	10	0
1.06193	43.4154	10	0
1.08189	42.727	10	0
1.10192	45.5773	10	0
1.12193	46.4158	10	0
1.14187	47.5369	10	0
1.1619	47.692	10	0
1.18191	49.1825	10	0
1.20193	49.5454	10	0
1.2219	50.4005	10	0
1.24193	50.477	10	0
1.26194	50.3397	10	0
1.28191	50.0361	10	0
1.30189	50.3496	10	0
1.32193	49.7298	10	0
1.34097	50.5444	11	0
1.3604	51.5743	11	0
1.38036	56.7727	11	0
1.40001	69.2865	11	0
1.38161	7.29579	11	0
1.36163	-4.21413	11	0
1.34164	-9.33235	11	0
1.32162	-10.7159	11	0
1.30162	-12.2904	11	0
1.28162	-12.4186	11	0
1.26168	-12.3504	11	0
1.24166	-13.4691	11	0
1.2216	-13.2191	11	0
1.20165	-13.1707	11	0
1.18162	-13.234	11	0
1.16167	-13.7056	11	0
1.14165	-14.5119	11	0
1.12163	-15.2103	11	0
1.10169	-15.0462	11	0
1.08164	-15.635	11	0
1.06166	-16.6549	11	0
1.04164	-17.0412	11	0
1.02166	-18.718	11	0
1.00167	-20.3273	11	0
0.98167	-22.7446	11	0
0.961671	-25.3797	11	0
0.94165	-28.6462	11	0
0.921643	-34.269	11	0
0.90167	-39.651	11	0
0.881646	-48.8431	11	0
0.86171	-61.9267	11	0
0.841643	-80.2562	11	0
0.821717	-104.838	11	0
0.80168	-131.834	11	0
0.781632	-145.097	11	0
0.761679	-133.924	11	0
0.741681	-107.403	11	0
0.721647	-80.7503	11	0
0.701682	-61.1591	11	0
0.681702	-45.5791	11	0
0.661696	-35.7377	11	0
0.641704	-28.6793	11	0
0.621689	-23.4358	11	0
0.60172	-19.5122	11	0
0.581634	-18.0881	11	0
0.561665	-16.2694	11	0
0.541722	-14.0728	11	0
0.521698	-14.3323	11	0
0.501735	-12.1017	11	0
0.48167	-12.339	11	0
0.46173	-11.9496	11	0
0.441716	-11.2587	11	0
0.421717	-11.1186	11	0
0.401709	-11.3188	11	0
0.381653	-11.5779	11	0
0.361745	-12.4045	11	0
0.3417	-12.6212	11	0
0.321686	-13.9539	11	0
0.301696	-16.4739	11	0
0.281712	-19.635	11	0
0.261698	-24.6599	11	0
0.241701	-29.7269	11	0
0.221729	-29.1632	11	0
0.201685	-27.9318	11	0
0.181765	-29.4847	11	0
0.161718	-33.9637	11	0
0.141734	-44.0828	11	0
0.121715	-51.3712	11	0
0.101765	-56.0927	11	0
0.115986	36.9266	11	0
0.135987	35.2227	11	0
0.155979	32.1397	11	0
0.175995	26.6775	11	0
0.195982	27.131	11	0
0.215971	26.612	11	0
0.236013	27.2566	11	0
0.255998	29.3913	11	0
0.275939	24.2909	11	0
0.295993	19.2073	11	0
0.315927	14.8536	11	0
0.335989	13.1045	11	0
0.355972	11.5886	11	0
0.375918	10.816	11	0
0.395934	10.1104	11	0
0.415993	9.73693	11	0
0.436016	10.2237	11	0
0.455982	10.1285	11	0
0.475951	11.0229	11	0
0.49601	10.779	11	0
0.515982	11.7379	11	0
0.535968	12.7178	11	0
0.555984	13.2267	11	0
0.57595	13.6528	11	0
0.595973	13.6695	11	0
0.615963	15.1833	11	0
0.635962	16.4469	11	0
0.656007	18.204	11	0
0.675951	19.3737	11	0
0.695936	20.306	11	0
0.71598	22.1639	11	0
0.735945	25.6339	11	0
0.755955	29.9917	11	0
0.775959	37.8845	11	0
0.795948	42.4132	11	0
0.815908	46.1724	11	0
0.835998	48.1663	11	0
0.855951	46.4384	11	0
0.875977	43.5444	11	0
0.895958	42.9604	11	0
0.91591	41.8266	11	0
0.935934	41.4981	11	0
0.955926	42.0469	11	0
0.975965	42.9709	11	0
0.995951	42.0316	11	0
1.01595	42.8065	11	0
1.03593	41.5778	11	0
1.05593	42.7645	11	0
1.07594	43.3193	11	0
1.09587	44.0372	11	0
1.11591	46.184	11	0
1.13591	47.6221	11	0
1.1559	47.865	11	0
1.17591	47.7539	11	0
1.19584	49.0364	11	0
1.21593	49.3645	11	0
1.23592	49.7229	11	0
1.25595	50.0564	11	0
1.27591	50.9742	11	0
1.29593	49.8458	11	0
1.31587	49.7946	11	0
1.33591	50.0485	11	0
1.34078	50.6504	11	0