File: example_data/Example_MEA_01/CVs/CVpre_C01.txt
Ewe/V	<I>/mA	cycle number
1.01917	-1.36326	1	0
1.0387	14.1968	1	0
1.05871	15.1889	1	0
1.07868	15.7053	1	0
1.09868	16.3165	1	0
1.11866	16.5926	1	0
1.13868	17.1657	1	0
1.15868	17.1811	1	0
1.1787	17.6112	1	0
1.19866	17.574	1	0
1.21868	18.1038	1	0
1.23868	18.0918	1	0
1.25868	18.5222	1	0
1.27869	18.7539	1	0
1.29867	19.5585	1	0
1.31875	20.2759	1	0
1.33871	21.2633	1	0
1.35868	21.9931	1	0
1.37868	24.7997	1	0
1.39869	32.1672	1	0
1.38361	-10.8676	1	0
1.36358	-14.9949	1	0
1.34361	-15.755	1	0
1.32362	-15.9511	1	0
1.30363	-15.5175	1	0
1.28363	-15.2863	1	0
1.26364	-15.07	1	0
1.2436	-15.2443	1	0
1.22357	-14.805	1	0
1.20362	-14.9639	1	0
1.18361	-14.7379	1	0
1.16362	-14.8445	1	0
1.14362	-15.1758	1	0
1.12362	-15.3513	1	0
1.10364	-15.525	1	0
1.08363	-16.075	1	0
1.06364	-15.7029	1	0
1.04365	-16.3258	1	0
1.02366	-16.4704	1	0
1.00363	-17.5624	1	0
0.983677	-18.4087	1	0
0.963643	-19.846	1	0
0.94368	-22.5654	1	0
0.923682	-26.2546	1	0
0.903728	-30.0199	1	0
0.883668	-35.0302	1	0
0.863659	-40.1728	1	0
0.843712	-45.9036	1	0
0.823648	-51.9053	1	0
0.803639	-59.2816	1	0
0.783663	-69.1052	1	0
0.763638	-85.0224	1	0
0.743671	-111.329	1	0
0.723654	-165.586	1	0
0.703698	-267.868	1	0
0.68369	-410.428	1	0
0.663682	-483.819	1	0
0.64362	-343.284	1	0
0.623635	-148.13	1	0
0.603688	-72.9843	1	0
0.583604	-48.4362	1	0
0.56366	-38.0991	1	0
0.543703	-31.698	1	0
0.523686	-27.8831	1	0
0.50372	-24.7266	1	0
0.4837	-23.3826	1	0
0.463728	-21.6968	1	0
0.443674	-21.2586	1	0
0.423685	-20.5552	1	0
0.40367	-20.6809	1	0
0.383689	-20.8781	1	0
0.363667	-22.0298	1	0
0.343642	-23.4416	1	0
0.323702	-25.7675	1	0
0.303715	-29.1812	1	0
0.28374	-34.7114	1	0
0.263688	-40.0896	1	0
0.243732	-45.4962	1	0
0.223678	-47.736	1	0
0.203709	-49.4613	1	0
0.183709	-51.4043	1	0
0.16366	-58.1403	1	0
0.143674	-67.4199	1	0
0.123669	-78.0476	1	0
0.103699	-84.9546	1	0
0.114967	34.4886	1	0
0.134993	36.3806	1	0
0.154978	34.9656	1	0
0.174966	33.2738	1	0
0.194997	31.5068	1	0
0.214985	32.1798	1	0
0.234991	33.0954	1	0
0.254941	32.7947	1	0
0.274944	29.3176	1	0
0.294951	23.1335	1	0
0.314935	18.8285	1	0
0.334958	15.3606	1	0
0.354976	13.908	1	0
0.374935	11.6892	1	0
0.394991	11.2343	1	0
0.414934	11.1291	1	0
0.435002	11.3802	1	0
0.454961	11.3645	1	0
0.474932	12.0055	1	0
0.494953	12.9337	1	0
0.514981	14.3538	1	0
0.53493	15.2033	1	0
0.554999	15.9864	1	0
0.574944	16.5583	1	0
0.595003	17.7265	1	0
0.614956	18.5944	1	0
0.634934	20.2636	1	0
0.654971	22.4025	1	0
0.674948	23.8333	1	0
0.694951	25.5179	1	0
0.714936	28.1438	1	0
0.734899	32.865	1	0
0.754942	40.8225	1	0
0.774906	47.7913	1	0
0.7949	53.6972	1	0
0.814893	57.2953	1	0
0.834969	59.1711	1	0
0.854928	56.9247	1	0
0.874952	55.8248	1	0
0.89495	54.6712	1	0
0.914971	54.6296	1	0
0.934956	54.1607	1	0
0.954978	54.5319	1	0
0.974957	54.5558	1	0
0.994921	54.9909	1	0
1.01492	54.9049	1	0
1.03383	55.5185	2	0
1.05382	56.0364	2	0
1.07382	57.3842	2	0
1.09381	59.1252	2	0
1.11387	60.3469	2	0
1.13383	61.7817	2	0
1.15382	62.9573	2	0
1.17378	64.8493	2	0
1.1938	65.1277	2	0
1.21378	65.6095	2	0
1.23379	65.9086	2	0
1.25381	66.5295	2	0
1.27384	66.2176	2	0
1.2938	66.0179	2	0
1.3138	66.1645	2	0
1.33379	66.0298	2	0
1.35383	66.712	2	0
1.3738	70.0043	2	0
1.39378	77.956	2	0
1.38867	23.0403	2	0
1.36862	1.67794	2	0
1.34859	-5.75546	2	0
1.32863	-9.28691	2	0
1.30867	-10.2157	2	0
1.28864	-12.0838	2	0
1.26863	-12.5824	2	0
1.24862	-13.3419	2	0
1.22864	-13.7173	2	0
1.20859	-14.7101	2	0
1.18864	-15.153	2	0
1.16858	-15.3092	2	0
1.14863	-15.8836	2	0
1.12865	-16.7765	2	0
1.10862	-17.3354	2	0
1.08869	-18.0853	2	0
1.06865	-18.8948	2	0
1.04865	-20.6794	2	0
1.02869	-21.694	2	0
1.00863	-24.027	2	0
0.988705	-26.3963	2	0
0.968667	-30.1875	2	0
0.948722	-33.804	2	0
0.928677	-39.7769	2	0
0.908665	-46.435	2	0
0.888663	-56.5596	2	0
0.868682	-70.624	2	0
0.848766	-89.788	2	0
0.828709	-117.237	2	0
0.808669	-151.15	2	0
0.78864	-178.081	2	0
0.768686	-183.135	2	0
0.748665	-159.897	2	0
0.728655	-125.086	2	0
0.708664	-93.5199	2	0
0.688638	-70.1946	2	0
0.668744	-52.8584	2	0
0.648695	-42.2507	2	0
0.628651	-34.2616	2	0
0.60867	-29.6824	2	0
0.588677	-24.6605	2	0
0.568687	-21.8116	2	0
0.548645	-19.3971	2	0
0.528643	-17.1621	2	0
0.508721	-16.3312	2	0
0.488682	-16.2877	2	0
0.468728	-15.2262	2	0
0.448768	-14.9674	2	0
0.428663	-14.6806	2	0
0.408733	-14.7303	2	0
0.388659	-14.8541	2	0
0.368673	-15.8155	2	0
0.34869	-16.6332	2	0
0.328674	-19.0967	2	0
0.308711	-22.2572	2	0
0.288655	-26.4093	2	0
0.268722	-31.7277	2	0
0.248717	-37.1757	2	0
0.22873	-40.2607	2	0
0.208741	-40.3513	2	0
0.188712	-41.4207	2	0
0.168695	-46.7037	2	0
0.148647	-54.9845	2	0
0.128732	-65.1095	2	0
0.108677	-73.5161	2	0
0.109985	36.9266	2	0
0.129995	40.3635	2	0
0.149971	37.8176	2	0
0.169987	35.48	2	0
0.189965	33.1687	2	0
0.209983	32.2518	2	0
0.229988	33.8326	2	0
0.249954	33.8787	2	0
0.269939	30.4971	2	0
0.289966	25.2646	2	0
0.309994	20.5712	2	0
0.329975	16.6953	2	0
0.349958	14.0658	2	0
0.369976	12.4701	2	0
0.389968	11.6197	2	0
0.410007	11.1141	2	0
0.429994	11.0882	2	0
0.449983	11.0941	2	0
0.469953	11.7036	2	0
0.490004	12.0871	2	0
0.509968	13.4542	2	0
0.529964	13.7562	2	0
0.549942	14.3191	2	0
0.569947	15.3105	2	0
0.589964	16.192	2	0
0.609971	17.1144	2	0
0.629971	18.6086	2	0
0.649985	20.1522	2	0
0.669946	21.5075	2	0
0.689916	22.8188	2	0
0.709956	26.033	2	0
0.729937	28.8768	2	0
0.749929	36.6541	2	0
0.769952	44.1548	2	0
0.789939	50.726	2	0
0.809944	54.9847	2	0
0.829928	57.0678	2	0
0.849957	55.4907	2	0
0.869955	54.6743	2	0
0.889961	52.2605	2	0
0.909934	51.2769	2	0
0.92992	51.1664	2	0
0.949964	52.103	2	0
0.969956	52.2291	2	0
0.989913	52.0693	2	0
1.00995	52.1021	2	0
1.02881	52.7859	3	0
1.04884	52.9097	3	0
1.06882	53.8728	3	0
1.08884	54.1564	3	0
1.10886	56.1655	3	0
1.12881	57.8759	3	0
1.14882	59.1724	3	0
1.16882	60.1385	3	0
1.18877	61.1363	3	0
1.20876	61.9672	3	0
1.22886	62.6433	3	0
1.24881	62.8322	3	0
1.2688	62.7275	3	0
1.28883	62.7099	3	0
1.30886	62.7223	3	0
1.32881	62.6896	3	0
1.3488	63.0976	3	0
1.36881	64.8952	3	0
1.38881	71.8531	3	0
1.39364	31.2487	3	0
1.3736	4.01999	3	0
1.35361	-5.36464	3	0
1.33364	-9.23785	3	0
1.31364	-11.3881	3	0
1.29364	-11.5913	3	0
1.27367	-12.7739	3	0
1.25365	-13.3575	3	0
1.23365	-13.4476	3	0
1.21365	-13.8789	3	0
1.19368	-14.3777	3	0
1.17364	-14.7451	3	0
1.15363	-14.5851	3	0
1.13366	-16.8419	3	0
1.11363	-16.312	3	0
1.09365	-18.2134	3	0
1.07364	-18.6935	3	0
1.05362	-19.6263	3	0
1.03369	-21.3812	3	0
1.0137	-23.4008	3	0
0.993648	-25.3967	3	0
0.973698	-28.3176	3	0
0.953706	-31.9537	3	0
0.93368	-37.1875	3	0
0.913697	-43.3978	3	0
0.89366	-52.7317	3	0
0.87371	-64.427	3	0
0.853704	-82.7529	3	0
0.833689	-107.846	3	0
0.813659	-140.373	3	0
0.793641	-170.585	3	0
0.773642	-181.696	3	0
0.753648	-164.1	3	0
0.733636	-130.179	3	0
0.713673	-96.9266	3	0
0.693685	-72.8769	3	0
0.673686	-55.2585	3	0
0.65368	-43.3133	3	0
0.63365	-34.9186	3	0
0.613717	-28.4111	3	0
0.593657	-24.9214	3	0
0.573726	-20.8768	3	0
0.553637	-19.4213	3	0
0.533679	-17.8043	3	0
0.513667	-16.996	3	0
0.493664	-16.2354	3	0
0.473708	-15.2232	3	0
0.453716	-15.1335	3	0
0.433714	-14.6387	3	0
0.413694	-13.8665	3	0
0.393727	-15.0066	3	0
0.373749	-15.9344	3	0
0.353685	-16.2944	3	0
0.333731	-18.0118	3	0
0.313656	-20.7309	3	0
0.293736	-24.405	3	0
0.273683	-29.4591	3	0
0.253699	-34.9083	3	0
0.233719	-37.4816	3	0
0.213688	-38.5198	3	0
0.193702	-38.954	3	0
0.173727	-42.6178	3	0
0.153672	-51.8706	3	0
0.133706	-60.8533	3	0
0.113698	-68.5687	3	0
0.104919	29.1236	3	0
0.124968	40.6087	3	0
0.144991	38.2282	3	0
0.164946	35.187	3	0
0.184972	33.3804	3	0
0.204971	31.7173	3	0
0.224938	31.3143	3	0
0.244984	32.7797	3	0
0.264964	31.385	3	0
0.284989	25.8085	3	0
0.304977	20.7525	3	0
0.324918	16.6182	3	0
0.344937	14.2066	3	0
0.364959	12.2261	3	0
0.38501	11.3828	3	0
0.40497	11.3956	3	0
0.424986	10.9686	3	0
0.444945	10.4725	3	0
0.464983	10.6517	3	0
0.48503	11.4529	3	0
0.505011	12.5085	3	0
0.524995	13.1201	3	0
0.544944	13.6863	3	0
0.564953	14.919	3	0
0.58493	15.4085	3	0
0.605021	16.288	3	0
0.624965	17.5799	3	0
0.64499	18.0182	3	0
0.664965	20.5289	3	0
0.684988	22.2524	3	0
0.704938	24.0406	3	0
0.724882	26.6703	3	0
0.744985	33.3918	3	0
0.764962	40.6989	3	0
0.784904	46.9249	3	0
0.804951	51.9873	3	0
0.824994	55.7108	3	0
0.844974	55.5889	3	0
0.864949	54.3911	3	0
0.884963	51.0903	3	0
0.904979	50.8344	3	0
0.924967	50.6827	3	0
0.944918	51.3733	3	0
0.964968	50.5058	3	0
0.984931	50.6775	3	0
1.00494	50.6877	3	0
1.02383	50.3387	4	0
1.04386	50.8355	4	0
1.0638	51.8323	4	0
1.08382	52.8426	4	0
1.10383	55.0341	4	0
1.12384	55.3249	4	0
1.14378	56.4145	4	0
1.16381	57.046	4	0
1.18381	59.3568	4	0
1.20381	59.7783	4	0
1.22381	60.8622	4	0
1.2438	62.557	4	0
1.26386	65.0718	4	0
1.28383	58.2744	4	0
1.30374	56.9483	4	0
1.32381	59.7736	4	0
1.34379	61.1234	4	0
1.36378	61.2592	4	0
1.38381	67.6077	4	0
1.39864	44.6747	4	0
1.37863	6.89994	4	0
1.35868	-3.23617	4	0
1.33869	-8.80859	4	0
1.31864	-10.4515	4	0
1.29864	-12.0826	4	0
1.27862	-13.0783	4	0
1.25867	-13.0708	4	0
1.23867	-13.7554	4	0
1.21861	-14.0867	4	0
1.19857	-14.8788	4	0
1.17862	-14.2895	4	0
1.15865	-15.6245	4	0
1.13858	-16.2851	4	0
1.11869	-16.516	4	0
1.09866	-17.1917	4	0
1.07865	-17.8022	4	0
1.05867	-19.0691	4	0
1.03864	-20.6035	4	0
1.01866	-21.8339	4	0
0.99874	-24.2922	4	0
0.978676	-27.8731	4	0
0.958675	-30.953	4	0
0.938705	-35.3983	4	0
0.918681	-41.3748	4	0
0.898738	-49.6181	4	0
0.878687	-61.3881	4	0
0.8587	-77.7508	4	0
0.838663	-101.817	4	0
0.818752	-132.621	4	0
0.79868	-164.466	4	0
0.778625	-178.119	4	0
0.75863	-164.395	4	0
0.738632	-131.787	4	0
0.718643	-98.6193	4	0
0.698691	-73.7433	4	0
0.678727	-56.0786	4	0
0.658683	-43.6883	4	0
0.638687	-35.7759	4	0
0.61873	-29.2061	4	0
0.598707	-24.8704	4	0
0.578693	-21.8666	4	0
0.558703	-19.4738	4	0
0.538688	-18.0672	4	0
0.518722	-16.5316	4	0
0.498754	-15.7349	4	0
0.478703	-15.5518	4	0
0.458737	-14.6565	4	0
0.438744	-14.4408	4	0
0.418779	-14.4578	4	0
0.398687	-14.6405	4	0
0.378719	-14.7319	4	0
0.358742	-15.5982	4	0
0.338657	-17.4212	4	0
0.318693	-19.7956	4	0
0.298699	-23.2468	4	0
0.278717	-27.9075	4	0
0.258725	-32.925	4	0
0.23872	-36.7232	4	0
0.218701	-36.6505	4	0
0.198689	-37.4755	4	0
0.17874	-38.8181	4	0
0.158653	-48.481	4	0
0.138705	-57.8174	4	0
0.11869	-64.5163	4	0
0.100236	-70.9617	4	0
0.119926	40.8542	4	0
0.140005	38.8146	4	0
0.159998	36.5413	4	0
0.17998	32.5256	4	0
0.199983	33.3102	4	0
0.219934	31.3631	4	0
0.239981	32.5664	4	0
0.259962	32.1358	4	0
0.28	27.3951	4	0
0.299948	21.9853	4	0
0.319988	18.4395	4	0
0.339934	14.4232	4	0
0.359957	12.5022	4	0
0.379937	11.7259	4	0
0.39993	10.9396	4	0
0.419971	10.3115	4	0
0.440013	10.5586	4	0
0.46003	10.5982	4	0
0.479961	11.3185	4	0
0.499936	11.9494	4	0
0.519942	12.7498	4	0
0.539974	13.7859	4	0
0.559963	13.7942	4	0
0.579942	14.0025	4	0
0.599983	16.3046	4	0
0.619916	17.158	4	0
0.640001	18.3829	4	0
0.659959	19.5771	4	0
0.679943	22.1626	4	0
0.699948	23.3041	4	0
0.719962	26.2687	4	0
0.739921	31.396	4	0
0.759935	37.4865	4	0
0.779927	44.9286	4	0
0.799924	51.0206	4	0
0.819983	54.3511	4	0
0.840011	55.7535	4	0
0.859965	54.2585	4	0
0.879963	51.9027	4	0
0.899966	49.2368	4	0
0.919972	49.0795	4	0
0.939964	49.4877	4	0
0.959968	50.0964	4	0
0.979909	49.2298	4	0
0.99996	49.9626	4	0
1.01934	50.8069	5	0
1.03883	50.3182	5	0
1.05886	50.1984	5	0
1.07881	51.5023	5	0
1.09882	53.5743	5	0
1.11881	53.8689	5	0
1.13881	55.9929	5	0
1.15883	56.8241	5	0
1.1788	58.4007	5	0
1.19882	58.7946	5	0
1.21879	59.6939	5	0
1.23883	59.6553	5	0
1.25884	58.9807	5	0
1.27877	59.9588	5	0
1.29881	60.5496	5	0
1.3188	58.601	5	0
1.3388	60.089	5	0
1.35884	60.9888	5	0
1.37878	64.4593	5	0
1.39879	75.9459	5	0
1.38361	11.8201	5	0
1.36365	-2.50131	5	0
1.34358	-8.34979	5	0
1.3236	-10.6845	5	0
1.30368	-11.5631	5	0
1.28368	-13.3766	5	0
1.26365	-12.5658	5	0
1.24363	-13.6896	5	0
1.22364	-13.6085	5	0
1.20365	-14.4719	5	0
1.18363	-13.9725	5	0
1.16368	-15.1468	5	0
1.14364	-15.3754	5	0
1.12366	-16.6572	5	0
1.10371	-16.5054	5	0
1.08365	-17.8008	5	0
1.06365	-18.7402	5	0
1.04368	-19.2998	5	0
1.02368	-21.2244	5	0
1.00369	-23.8283	5	0
0.983658	-26.1856	5	0
0.963664	-28.9967	5	0
0.943663	-33.5967	5	0
0.923704	-39.0185	5	0
0.903709	-46.4229	5	0
0.883706	-56.7274	5	0
0.863684	-71.0449	5	0
0.843691	-92.7156	5	0
0.823723	-119.749	5	0
0.803655	-153.01	5	0
0.783629	-172.244	5	0
0.763665	-166.544	5	0
0.743693	-138.875	5	0
0.723669	-105.337	5	0
0.703675	-77.062	5	0
0.683646	-59.299	5	0
0.663675	-45.5909	5	0
0.643721	-35.7444	5	0
0.6237	-29.1007	5	0
0.603696	-25.3467	5	0
0.583689	-21.278	5	0
0.563682	-18.8513	5	0
0.543688	-16.9738	5	0
0.523687	-16.4078	5	0
0.503682	-15.5002	5	0
0.48371	-15.0718	5	0
0.463751	-14.0713	5	0
0.44372	-14.1581	5	0
0.423696	-13.4941	5	0
0.403677	-13.575	5	0
0.383735	-13.7524	5	0
0.363699	-14.9989	5	0
0.343666	-16.6783	5	0
0.323671	-18.1651	5	0
0.303701	-20.3316	5	0
0.283706	-25.9065	5	0
0.263766	-30.574	5	0
0.24372	-35.8101	5	0
0.223712	-36.5618	5	0
0.203702	-36.5527	5	0
0.183766	-36.7641	5	0
0.163692	-42.5297	5	0
0.143749	-53.7505	5	0
0.123699	-61.4894	5	0
0.103686	-67.7711	5	0
0.114992	40.4116	5	0
0.134994	38.7877	5	0
0.155007	35.989	5	0
0.174997	33.2909	5	0
0.194994	32.2518	5	0
0.214997	31.3774	5	0
0.234961	31.7688	5	0
0.254945	31.004	5	0
0.274969	29.108	5	0
0.294975	22.1229	5	0
0.314965	18.844	5	0
0.335006	15.9617	5	0
0.354961	13.299	5	0
0.374958	12.1601	5	0
0.394967	11.3956	5	0
0.414936	10.8474	5	0
0.435	10.7511	5	0
0.454974	10.6541	5	0
0.474935	11.1345	5	0
0.494954	11.4504	5	0
0.514987	12.9627	5	0
0.534923	13.3402	5	0
0.555003	14.6302	5	0
0.574955	14.6903	5	0
0.595014	15.9047	5	0
0.614993	17.0135	5	0
0.634941	17.4087	5	0
0.654913	18.909	5	0
0.674925	20.8936	5	0
0.694962	22.7385	5	0
0.714922	24.7534	5	0
0.734871	28.6702	5	0
0.754915	36.0813	5	0
0.774913	43.3373	5	0
0.794966	49.1675	5	0
0.814924	53.1033	5	0
0.834983	55.0476	5	0
0.854992	54.0298	5	0
0.875002	50.4293	5	0
0.894991	50.1961	5	0
0.914957	49.4228	5	0
0.93493	47.7753	5	0
0.954911	49.1045	5	0
0.974962	48.1949	5	0
0.994966	49.0923	5	0
1.01495	48.1507	5	0
1.03389	48.3948	6	0
1.05383	48.6025	6	0
1.07385	50.1965	6	0
1.09378	51.7957	6	0
1.11385	53.1181	6	0
1.13385	54.3494	6	0
1.15383	55.6878	6	0
1.1738	56.7846	6	0
1.19381	57.4952	6	0
1.2138	58.263	6	0
1.23383	58.7002	6	0
1.25383	58.971	6	0
1.27383	58.4322	6	0
1.29381	58.0374	6	0
1.31381	58.3594	6	0
1.33379	58.6578	6	0
1.35382	59.5664	6	0
1.37381	62.5706	6	0
1.39377	71.3264	6	0
1.38864	19.6496	6	0
1.36862	-0.0878324	6	0
1.34863	-6.66544	6	0
1.32863	-10.171	6	0
1.30866	-11.4373	6	0
1.28861	-13.2524	6	0
1.26868	-12.5485	6	0
1.24865	-13.1399	6	0
1.2287	-13.4818	6	0
1.20866	-14.4585	6	0
1.18864	-13.6659	6	0
1.16864	-14.6885	6	0
1.14864	-15.6147	6	0
1.12864	-16.497	6	0
1.10866	-16.4604	6	0
1.08864	-16.87	6	0
1.06868	-17.6048	6	0
1.04867	-19.0748	6	0
1.02868	-19.7473	6	0
1.00864	-22.1844	6	0
0.988659	-23.7196	6	0
0.968672	-27.0458	6	0
0.948706	-30.7173	6	0
0.928679	-35.1889	6	0
0.908705	-41.8117	6	0
0.888715	-50.5903	6	0
0.868698	-63.3155	6	0
0.848709	-80.9951	6	0
0.828686	-105.98	6	0
0.808684	-135.961	6	0
0.788679	-161.831	6	0
0.768642	-168.813	6	0
0.748652	-149.229	6	0
0.728668	-116.449	6	0
0.708662	-87.6721	6	0
0.688683	-65.9879	6	0
0.668704	-49.2284	6	0
0.648686	-39.0838	6	0
0.628658	-32.4112	6	0
0.608656	-26.7964	6	0
0.588668	-22.2935	6	0
0.568666	-19.1629	6	0
0.548704	-18.1815	6	0
0.528723	-16.0086	6	0
0.508714	-15.1286	6	0
0.488738	-14.8863	6	0
0.468702	-13.9927	6	0
0.44872	-13.6782	6	0
0.42874	-12.858	6	0
0.408716	-13.8132	6	0
0.388662	-13.9107	6	0
0.368695	-13.9342	6	0
0.348723	-15.5168	6	0
0.328702	-17.3216	6	0
0.308635	-19.6456	6	0
0.288738	-23.2781	6	0
0.268722	-28.6919	6	0
0.248697	-33.3524	6	0
0.228711	-34.4115	6	0
0.208692	-34.792	6	0
0.188717	-36.0107	6	0
0.168671	-40.5139	6	0
0.148727	-49.6572	6	0
0.128741	-57.1301	6	0
0.108699	-65.5498	6	0
0.109959	37.6351	6	0
0.129968	38.0188	6	0
0.149989	34.3592	6	0
0.170045	33.5694	6	0
0.190049	30.8177	6	0
0.210012	29.5123	6	0
0.230004	31.2901	6	0
0.24997	31.076	6	0
0.270006	29.2614	6	0
0.289955	22.288	6	0
0.309992	18.6703	6	0
0.329962	14.9857	6	0
0.349962	12.8742	6	0
0.370029	11.5931	6	0
0.389998	10.8387	6	0
0.409991	10.1187	6	0
0.429984	10.1795	6	0
0.450002	10.6732	6	0
0.469968	10.9015	6	0
0.490007	10.8006	6	0
0.509942	12.0903	6	0
0.52998	12.3084	6	0
0.54995	13.8651	6	0
0.570006	14.7062	6	0
0.589987	14.8397	6	0
0.609914	15.7788	6	0
0.629943	17.4034	6	0
0.649989	18.3145	6	0
0.669994	20.1773	6	0
0.689971	20.675	6	0
0.709926	24.2685	6	0
0.729947	27.0021	6	0
0.749964	33.2538	6	0
0.76995	40.8437	6	0
0.789909	47.4172	6	0
0.809938	51.2116	6	0
0.829999	54.2589	6	0
0.850019	53.0829	6	0
0.869996	50.6153	6	0
0.88997	49.2807	6	0
0.909941	48.4269	6	0
0.929969	48.6388	6	0
0.949939	48.4246	6	0
0.969942	48.2334	6	0
0.989934	47.9738	6	0
1.00995	46.6412	6	0
1.02884	48.0085	7	0
1.04883	48.3154	7	0
1.06889	49.9445	7	0
1.08882	50.4627	7	0
1.10886	51.8983	7	0
1.12884	53.1411	7	0
1.14884	52.8416	7	0
1.16883	52.8167	7	0
1.18882	55.3098	7	0
1.20886	56.277	7	0
1.22883	58.1107	7	0
1.24883	57.5035	7	0
1.2688	56.1353	7	0
1.28882	56.7582	7	0
1.30882	57.347	7	0
1.32882	57.1742	7	0
1.34885	58.7353	7	0
1.36881	59.0894	7	0
1.38884	65.6544	7	0
1.39365	27.47	7	0
1.37365	2.19658	7	0
1.35362	-7.02283	7	0
1.33364	-9.78336	7	0
1.31368	-10.9027	7	0
1.29365	-11.7237	7	0
1.27365	-12.347	7	0
1.25366	-12.639	7	0
1.23364	-12.3211	7	0
1.21364	-13.4236	7	0
1.19361	-13.9728	7	0
1.17363	-14.5818	7	0
1.15366	-14.7571	7	0
1.13368	-15.7417	7	0
1.11368	-15.7825	7	0
1.09365	-16.8199	7	0
1.07369	-17.4749	7	0
1.05368	-18.4967	7	0
1.03367	-19.8782	7	0
1.01365	-21.9142	7	0
0.993635	-23.607	7	0
0.973681	-26.8514	7	0
0.953706	-30.4767	7	0
0.933657	-35.033	7	0
0.913658	-42.1724	7	0
0.893689	-49.5013	7	0
0.873711	-61.897	7	0
0.853691	-79.414	7	0
0.833703	-104.053	7	0
0.81364	-134.527	7	0
0.793649	-160.871	7	0
0.773692	-167.469	7	0
0.753655	-146.996	7	0
0.733697	-114.547	7	0
0.71369	-86.7161	7	0
0.693703	-63.6788	7	0
0.673681	-49.9168	7	0
0.653691	-37.9947	7	0
0.633681	-30.9307	7	0
0.613692	-25.6346	7	0
0.593709	-21.759	7	0
0.573704	-20.0727	7	0
0.553725	-17.3234	7	0
0.533691	-17.2601	7	0
0.513705	-16.4449	7	0
0.493694	-14.7333	7	0
0.473684	-14.2252	7	0
0.453712	-12.9086	7	0
0.433679	-13.3158	7	0
0.41369	-13.0906	7	0
0.393702	-13.5587	7	0
0.373664	-14.3663	7	0
0.353666	-15.2441	7	0
0.333691	-17.0115	7	0
0.313689	-19.134	7	0
0.293697	-23.1285	7	0
0.27369	-28.3049	7	0
0.253734	-33.321	7	0
0.233713	-34.0025	7	0
0.213709	-35.722	7	0
0.193747	-35.7783	7	0
0.173724	-39.0612	7	0
0.153739	-47.0036	7	0
0.133695	-55.5205	7	0
0.113718	-62.9774	7	0
0.104964	31.7974	7	0
0.124942	39.0348	7	0
0.145	36.8766	7	0
0.165022	34.71	7	0
0.184986	31.019	7	0
0.204992	30.5874	7	0
0.225003	29.1835	7	0
0.244966	30.9229	7	0
0.264942	29.4877	7	0
0.284987	25.3222	7	0
0.304969	19.0688	7	0
0.324929	15.5928	7	0
0.34493	13.8559	7	0
0.364995	12.267	7	0
0.384976	11.1775	7	0
0.404995	9.75382	7	0
0.42502	10.0643	7	0
0.445045	10.8714	7	0
0.464994	10.0323	7	0
0.484965	10.9073	7	0
0.505004	11.8834	7	0
0.524991	12.7014	7	0
0.544984	13.2644	7	0
0.564991	14.2983	7	0
0.584987	13.7639	7	0
0.604966	16.2799	7	0
0.625008	17.037	7	0
0.645007	17.4793	7	0
0.664996	19.6222	7	0
0.684976	21.9972	7	0
0.70497	23.7459	7	0
0.724954	25.8643	7	0
0.744932	32.0219	7	0
0.764967	37.8679	7	0
0.784931	46.7367	7	0
0.804975	49.6811	7	0
0.82502	53.9901	7	0
0.845018	54.0052	7	0
0.864972	52.0946	7	0
0.884944	49.0029	7	0
0.905008	47.8106	7	0
0.924954	47.2252	7	0
0.944998	47.9422	7	0
0.964975	47.4486	7	0
0.984978	47.863	7	0
1.00494	47.4505	7	0
1.02386	48.8154	8	0
1.0438	47.5651	8	0
1.06383	48.5816	8	0
1.08386	49.8828	8	0
1.10385	50.698	8	0
1.12381	51.5066	8	0
1.14383	53.97	8	0
1.16378	54.3723	8	0
1.1838	55.6379	8	0
1.20383	56.6466	8	0
1.2238	57.5485	8	0
1.2438	57.781	8	0
1.26387	58.2695	8	0
1.28382	56.7535	8	0
1.30385	57.5751	8	0
1.3238	57.1612	8	0
1.34381	57.813	8	0
1.36381	58.9562	8	0
1.38379	64.3838	8	0
1.3987	43.5216	8	0
1.37868	5.60198	8	0
1.35865	-4.60954	8	0
1.33863	-7.99284	8	0
1.31858	-10.9928	8	0
1.29861	-12.4711	8	0
1.27866	-12.7766	8	0
1.25864	-13.0668	8	0
1.23867	-13.6611	8	0
1.21863	-12.7957	8	0
1.19861	-13.9285	8	0
1.17862	-14.8928	8	0
1.15867	-15.8734	8	0
1.13866	-15.2131	8	0
1.11862	-15.8229	8	0
1.09866	-16.2626	8	0
1.07865	-16.9372	8	0
1.05865	-17.245	8	0
1.03861	-19.8178	8	0
1.01864	-20.7053	8	0
0.998665	-23.0603	8	0
0.978669	-26.1071	8	0
0.958668	-28.998	8	0
0.93866	-33.6259	8	0
0.918682	-37.901	8	0
0.898732	-46.5336	8	0
0.878703	-57.1848	8	0
0.858705	-73.2286	8	0
0.838708	-94.9901	8	0
0.818713	-123.151	8	0
0.798648	-151.785	8	0
0.778652	-163.602	8	0
0.758675	-150.468	8	0
0.738682	-119.978	8	0
0.718676	-90.8239	8	0
0.698703	-68.5072	8	0
0.678678	-52.0022	8	0
0.658717	-39.9015	8	0
0.638691	-32.8469	8	0
0.618687	-26.8016	8	0
0.598707	-23.0265	8	0
0.57868	-19.9926	8	0
0.558668	-17.5202	8	0
0.5387	-16.6113	8	0
0.518701	-15.5108	8	0
0.498726	-14.3909	8	0
0.478659	-13.4121	8	0
0.458737	-12.8585	8	0
0.43877	-13.0544	8	0
0.418766	-12.7901	8	0
0.398658	-13.6085	8	0
0.378646	-13.5476	8	0
0.358687	-14.8413	8	0
0.338711	-15.4685	8	0
0.318644	-18.4528	8	0
0.298724	-20.958	8	0
0.278709	-26.1476	8	0
0.258695	-31.1516	8	0
0.238706	-35.0221	8	0
0.2187	-34.5092	8	0
0.198681	-34.4113	8	0
0.178718	-36.8695	8	0
0.158671	-43.9664	8	0
0.138708	-53.4631	8	0
0.118728	-60.3285	8	0
0.100408	-63.4592	8	0
0.11992	39.1558	8	0
0.139954	36.8	8	0
0.159988	34.3775	8	0
0.180041	32.1485	8	0
0.199968	29.9479	8	0
0.219992	29.7039	8	0
0.24002	31.7707	8	0
0.259963	29.8069	8	0
0.279978	25.1492	8	0
0.299951	20.1494	8	0
0.319919	17.222	8	0
0.339972	13.7336	8	0
0.35995	11.6188	8	0
0.379958	11.3804	8	0
0.40003	10.0945	8	0
0.419983	9.54378	8	0
0.439993	9.65586	8	0
0.460027	10.8157	8	0
0.480024	10.9141	8	0
0.49996	11.866	8	0
0.519977	11.8026	8	0
0.539979	13.4386	8	0
0.559932	13.3848	8	0
0.579953	14.4554	8	0
0.599999	15.7277	8	0
0.619966	16.7531	8	0
0.640012	17.5154	8	0
0.659987	19.3515	8	0
0.679949	21.1434	8	0
0.699965	21.6366	8	0
0.719936	24.8771	8	0
0.739975	28.3526	8	0
0.759927	35.5041	8	0
0.77994	42.742	8	0
0.799956	48.6882	8	0
0.819956	51.4477	8	0
0.839973	52.9786	8	0
0.859967	50.8844	8	0
0.880023	50.2225	8	0
0.899995	47.1961	8	0
0.919993	47.4515	8	0
0.939976	47.5628	8	0
0.960019	47.5302	8	0
0.979933	47.5018	8	0
0.999893	47.9141	8	0
1.01927	46.9944	9	0
1.03881	46.5922	9	0
1.05889	48.044	9	0
1.07886	48.9841	9	0
1.09882	50.92	9	0
1.11884	51.0259	9	0
1.13883	52.9021	9	0
1.15882	53.7687	9	0
1.17884	56.0628	9	0
1.19878	55.5196	9	0
1.21875	56.3376	9	0
1.23882	56.4103	9	0
1.25885	56.6421	9	0
1.27881	55.8433	9	0
1.29882	56.41	9	0
1.31886	56.3579	9	0
1.3388	56.808	9	0
1.35882	57.9244	9	0
1.37881	61.3789	9	0
1.39878	73.0109	9	0
1.38363	10.9834	9	0
1.36363	-2.43288	9	0
1.34366	-6.79238	9	0
1.32361	-10.3679	9	0
1.30369	-10.708	9	0
1.28366	-11.4579	9	0
1.2637	-12.3055	9	0
1.24364	-12.8536	9	0
1.22361	-13.1339	9	0
1.20368	-14.0337	9	0
1.18363	-13.7736	9	0
1.16361	-14.6339	9	0
1.14364	-14.1433	9	0
1.12368	-15.366	9	0
1.10372	-15.7419	9	0
1.08363	-16.53	9	0
1.06367	-17.8429	9	0
1.04362	-18.5328	9	0
1.02368	-19.8556	9	0
1.0037	-21.8643	9	0
0.983664	-23.4938	9	0
0.963708	-26.7412	9	0
0.943691	-30.9362	9	0
0.923633	-36.1401	9	0
0.903693	-42.6897	9	0
0.883676	-51.5566	9	0
0.863693	-65.4122	9	0
0.843714	-84.5176	9	0
0.823698	-111.234	9	0
0.803646	-139.23	9	0
0.783667	-160.354	9	0
0.763632	-157.284	9	0
0.743719	-131.096	9	0
0.723713	-100.175	9	0
0.703738	-75.188	9	0
0.683677	-57.9205	9	0
0.66368	-43.0586	9	0
0.643689	-34.6361	9	0
0.623712	-28.7543	9	0
0.603716	-24.2341	9	0
0.583697	-20.3211	9	0
0.563721	-18.0584	9	0
0.543721	-16.3878	9	0
0.523668	-15.76	9	0
0.503713	-15.1001	9	0
0.48373	-13.9911	9	0
0.463729	-12.8988	9	0
0.443724	-13.3654	9	0
0.423706	-12.8672	9	0
0.403677	-13.0209	9	0
0.383704	-13.2572	9	0
0.36367	-14.0582	9	0
0.343669	-15.2521	9	0
0.323675	-17.5202	9	0
0.303729	-19.4458	9	0
0.283674	-24.0379	9	0
0.263688	-28.638	9	0
0.24369	-33.5943	9	0
0.223715	-33.6083	9	0
0.203727	-33.8554	9	0
0.183681	-34.9413	9	0
0.163699	-39.0477	9	0
0.143733	-48.9054	9	0
0.1237	-56.0573	9	0
0.1037	-63.1306	9	0
0.115041	38.7251	9	0
0.13495	35.3302	9	0
0.154984	34.0015	9	0
0.174925	30.9082	9	0
0.194997	29.6408	9	0
0.214961	28.9357	9	0
0.234987	29.6488	9	0
0.254957	29.6413	9	0
0.274966	26.468	9	0
0.294954	19.98	9	0
0.314948	17.2389	9	0
0.334969	13.8182	9	0
0.354964	12.2008	9	0
0.374977	10.9394	9	0
0.394963	10.3799	9	0
0.414989	10.0673	9	0
0.435002	9.9711	9	0
0.454968	10.1184	9	0
0.474984	10.5007	9	0
0.494954	11.082	9	0
0.51496	12.4801	9	0
0.534939	12.6864	9	0
0.554943	13.8209	9	0
0.57496	14.2819	9	0
0.595002	14.6582	9	0
0.614975	15.9492	9	0
0.63495	16.9014	9	0
0.654968	19.0681	9	0
0.674941	20.8411	9	0
0.694974	21.7657	9	0
0.714953	23.6082	9	0
0.734936	27.4442	9	0
0.754941	34.8565	9	0
0.774913	41.6438	9	0
0.794946	47.7222	9	0
0.814923	51.4889	9	0
0.834961	53.5369	9	0
0.854944	51.4391	9	0
0.87492	48.438	9	0
0.894994	47.2788	9	0
0.914986	47.3746	9	0
0.934916	46.5376	9	0
0.954999	46.9829	9	0
0.974948	46.6895	9	0
0.994986	47.4426	9	0
1.015	46.1893	9	0
1.03384	46.5866	10	0
1.05387	46.3212	10	0
1.07389	47.7685	10	0
1.09378	49.4136	10	0
1.11387	50.0354	10	0
1.13382	51.9648	10	0
1.15384	52.9018	10	0
1.17385	53.6505	10	0
1.19385	54.5557	10	0
1.21377	54.721	10	0
1.23377	55.6907	10	0
1.25385	56.0774	10	0
1.27381	55.3856	10	0
1.29388	55.7139	10	0
1.31379	55.6492	10	0
1.33381	55.6092	10	0
1.35381	55.853	10	0
1.37385	59.0413	10	0
1.39377	68.6085	10	0
1.38861	18.6993	10	0
1.36859	-0.770274	10	0
1.34864	-7.2829	10	0
1.32866	-9.90288	10	0
1.30869	-10.8991	10	0
1.28862	-12.0955	10	0
1.26867	-12.6627	10	0
1.24864	-13.1438	10	0
1.22867	-12.8399	10	0
1.20862	-14.4842	10	0
1.18862	-13.8021	10	0
1.16868	-13.6372	10	0
1.14866	-13.8704	10	0
1.12864	-15.5699	10	0
1.10865	-16.5021	10	0
1.08867	-16.2498	10	0
1.06864	-17.3735	10	0
1.04868	-18.2655	10	0
1.02868	-18.5042	10	0
1.00865	-21.0085	10	0
0.98869	-23.0858	10	0
0.96866	-26.7002	10	0
0.948713	-29.7153	10	0
0.928664	-34.1631	10	0
0.908712	-39.7015	10	0
0.8887	-49.2532	10	0
0.868714	-60.808	10	0
0.848707	-76.1989	10	0
0.828713	-100.755	10	0
0.808661	-126.676	10	0
0.788668	-163.575	10	0
0.768641	-163.577	10	0
0.748669	-137.761	10	0
0.728713	-104.281	10	0
0.708663	-76.7879	10	0
0.688685	-57.8365	10	0
0.668674	-43.8466	10	0
0.648681	-34.1999	10	0
0.628701	-27.9548	10	0
0.608683	-22.4625	10	0
0.588747	-20.5203	10	0
0.568694	-18.2875	10	0
0.548698	-17.4599	10	0
0.528673	-15.0277	10	0
0.508753	-14.2168	10	0
0.488771	-13.7601	10	0
0.468724	-13.0339	10	0
0.448757	-12.8269	10	0
0.428701	-12.3645	10	0
0.408686	-12.2352	10	0
0.388651	-12.2424	10	0
0.368696	-13.3254	10	0
0.348692	-14.4184	10	0
0.328707	-16.4081	10	0
0.308703	-18.2112	10	0
0.288695	-22.368	10	0
0.268718	-27.9032	10	0
0.248688	-32.5545	10	0
0.228705	-34.6082	10	0
0.208765	-32.4574	10	0
0.188734	-34.8169	10	0
0.168706	-37.882	10	0
0.148717	-47.9796	10	0
0.128718	-55.9054	10	0
0.108722	-59.9166	10	0
0.110022	36.9766	10	0
0.129983	39.204	10	0
0.150019	35.2508	10	0
0.170014	32.3737	10	0
0.190007	32.396	10	0
0.209973	29.8219	10	0
0.229983	30.6819	10	0
0.250005	31.5395	10	0
0.26995	28.467	10	0
0.290037	23.6501	10	0
0.309946	18.3575	10	0
0.329945	15.3254	10	0
0.349952	13.112	10	0
0.369968	11.8802	10	0
0.389968	11.6172	10	0
0.409989	10.3886	10	0
0.429979	9.8119	10	0
0.450001	10.6885	10	0
0.470012	10.7228	10	0
0.490005	11.0738	10	0
0.509993	12.318	10	0
0.529934	13.7006	10	0
0.549976	13.5088	10	0
0.569977	14.1736	10	0
0.589959	15.1291	10	0
0.609925	15.089	10	0
0.629966	17.9556	10	0
0.649974	17.8876	10	0
0.669982	19.8101	10	0
0.689921	21.6444	10	0
0.709963	23.0826	10	0
0.729946	25.5847	10	0
0.749959	32.0845	10	0
0.769942	38.4573	10	0
0.789965	46.1307	10	0
0.809975	50.2945	10	0
0.829947	53.1279	10	0
0.85001	52.6373	10	0
0.870002	50.0327	10	0
0.889993	47.1954	10	0
0.909973	46.6396	10	0
0.92992	46.5517	10	0
0.949955	46.0638	10	0
0.969949	47.0385	10	0
0.989924	46.381	10	0
1.00995	46.3586	10	0
1.02883	45.9274	11	0
1.04882	46.7566	11	0
1.06887	47.6516	11	0
1.08884	49.013	11	0
1.10885	48.4712	11	0
1.12885	51.4598	11	0
1.14884	52.8573	11	0
1.16887	53.6842	11	0
1.18879	54.1722	11	0
1.20877	54.7197	11	0
1.22882	56.1205	11	0
1.24884	55.8884	11	0
1.26885	54.8746	11	0
1.28883	56.3692	11	0
1.30882	54.8256	11	0
1.32878	55.1363	11	0
1.34876	55.5821	11	0
1.36876	57.8552	11	0
1.38879	63.8189	11	0
1.39364	26.2924	11	0
1.37362	1.57425	11	0
1.35362	-6.00174	11	0
1.33364	-9.17871	11	0
1.31363	-11.6803	11	0
1.29367	-12.7276	11	0
1.27364	-12.6099	11	0
1.25364	-13.1046	11	0
1.23363	-12.9021	11	0
1.21362	-14.0329	11	0
1.19364	-13.2538	11	0
1.17361	-14.1815	11	0
1.15367	-14.1541	11	0
1.13362	-15.5143	11	0
1.11367	-15.3484	11	0
1.09363	-16.477	11	0
1.07365	-16.8441	11	0
1.05366	-18.1334	11	0
1.03364	-19.6636	11	0
1.01369	-20.8841	11	0
0.993664	-22.9389	11	0
0.973687	-25.6126	11	0
0.953707	-29.1541	11	0
0.933692	-34.0878	11	0
0.913655	-39.8753	11	0
0.893751	-47.8197	11	0
0.873721	-58.6089	11	0
0.853734	-75.6374	11	0
0.833716	-98.6654	11	0
0.813662	-127.152	11	0
0.793658	-152.56	11	0
0.773646	-157.999	11	0
0.753717	-137.793	11	0
0.73367	-108.43	11	0
0.713685	-80.3224	11	0
0.693729	-60.8346	11	0
0.673676	-46.8588	11	0
0.653701	-36.611	11	0
0.633702	-29.7819	11	0
0.613687	-25.587	11	0
0.593682	-21.2509	11	0
0.573672	-18.2766	11	0
0.553691	-17.6487	11	0
0.53369	-14.9156	11	0
0.51369	-14.173	11	0
0.493697	-13.6705	11	0
0.473724	-13.3443	11	0
0.453704	-12.8794	11	0
0.433681	-11.9933	11	0
0.413736	-12.4192	11	0
0.393681	-12.1473	11	0
0.37365	-13.6367	11	0
0.353661	-14.3594	11	0
0.333698	-15.62	11	0
0.313686	-17.3101	11	0
0.293691	-20.7122	11	0
0.273684	-25.384	11	0
0.253736	-30.8087	11	0
0.233702	-32.8982	11	0
0.213718	-33.2696	11	0
0.193704	-33.93	11	0
0.173726	-35.3147	11	0
0.153681	-44.1427	11	0
0.133733	-52.5757	11	0
0.113704	-58.7637	11	0
0.104982	30.6649	11	0
0.124956	38.4609	11	0
0.145006	35.665	11	0
0.164976	32.4951	11	0
0.18498	31.5492	11	0
0.205007	30.1685	11	0
0.225024	31.0049	11	0
0.245004	31.3521	11	0
0.264998	29.8644	11	0
0.28497	23.5451	11	0
0.304969	18.8178	11	0
0.324962	15.4917	11	0
0.344958	13.5151	11	0
0.364999	12.0548	11	0
0.38495	10.6948	11	0
0.40503	10.9393	11	0
0.425006	11.4053	11	0
0.444989	10.7088	11	0
0.464974	10.598	11	0
0.484977	11.7235	11	0
0.505	11.8941	11	0
0.524972	12.997	11	0
0.544991	13.3485	11	0
0.564983	13.7448	11	0
0.584961	15.3152	11	0
0.604973	17.0629	11	0
0.624943	16.9001	11	0
0.644983	18.4556	11	0
0.664969	18.9355	11	0
0.684978	20.867	11	0
0.704963	22.843	11	0
0.724954	25.7533	11	0
0.744935	29.6826	11	0
0.764892	37.041	11	0
0.784949	43.2655	11	0
0.80489	47.4674	11	0
0.824902	52.1035	11	0
0.845017	51.9302	11	0
0.86497	50.0644	11	0
0.884986	47.4328	11	0
0.904955	45.7925	11	0
0.924949	46.135	11	0
0.944941	45.2112	11	0
0.964903	45.3803	11	0
0.984946	44.9498	11	0
1.00494	46.1815	11	0
1.01917	45.5226	11	0